"success","timeout","failed_images","failed_audio","failed_video","trial_type","trial_index","time_elapsed","internal_node_id","rt","stimulus","response","exp_type","correct_response","acc","decision","record_acc","decision_2"
"true","false","[]","[]","[]","preload","0","1","0.0-0.0-0.0","","","","","","","","",""
"","","","","","html-keyboard-response","1","2078","0.0-0.0-1.0","2076","<p style =' color : white'>hhhhhhhhhh</p>","j","","","","","",""
"","","","","","html-keyboard-response","2","2587","0.0-0.0-2.0-1.0","null","<div style=""font-size:60px; color: white"">+</div>","null","practice","","","","",""
"","","","","","image-keyboard-response","3","2795","0.0-0.0-2.0-2.0","null","../data/img/test/circle/circle30_2.png","null","practice","No_info","0","Noinclude","",""
"","","","","","html-keyboard-response","4","4075","0.0-0.0-2.0-3.0","1279","<p> </p>","k","practice","No_info","1","无信息","yes",""
"","","","","","html-keyboard-response","5","5503","0.0-0.0-2.0-4.0","1428","<p style =' color : white'>你认为刚才你的判断是?</p>","d","practice","","","","no","错误"
"","","","","","html-keyboard-response","6","6013","0.0-0.0-2.0-5.0","null","<span style='color:GreenYellow; font-size: 70px;'>正确! </span>","null","practice","","","","",""
"","","","","","html-keyboard-response","7","6521","0.0-0.0-2.0-1.1","null","<div style=""font-size:60px; color: white"">+</div>","null","practice","","","","",""
"","","","","","image-keyboard-response","8","6731","0.0-0.0-2.0-2.1","null","../data/img/test/circle/circle41_4.png","null","practice","No_info","0","Noinclude","",""
"","","","","","html-keyboard-response","9","8588","0.0-0.0-2.0-3.1","1856","<p> </p>","l","practice","No_info","1","无信息","yes",""
"","","","","","html-keyboard-response","10","10142","0.0-0.0-2.0-4.1","1553","<p style =' color : white'>你认为刚才你的判断是?</p>","a","practice","","","","no","正确"
"","","","","","html-keyboard-response","11","10649","0.0-0.0-2.0-5.1","null","<span style='color:GreenYellow; font-size: 70px;'>正确! </span>","null","practice","","","","",""
"","","","","","html-keyboard-response","12","11154","0.0-0.0-2.0-1.2","null","<div style=""font-size:60px; color: white"">+</div>","null","practice","","","","",""
"","","","","","image-keyboard-response","13","11364","0.0-0.0-2.0-2.2","null","../data/img/test/square/square99_2.png","null","practice","Bad","0","Noinclude","",""
"","","","","","html-keyboard-response","14","13241","0.0-0.0-2.0-3.2","1876","<p> </p>","k","practice","Bad","0","好人","yes",""
"","","","","","html-keyboard-response","15","14263","0.0-0.0-2.0-4.2","1022","<p style =' color : white'>你认为刚才你的判断是?</p>","d","practice","","","","no","错误"
"","","","","","html-keyboard-response","16","14771","0.0-0.0-2.0-5.2","null","<span style='color:red; font-size: 70px;'>错误! </span>","null","practice","","","","",""
"","","","","","html-keyboard-response","17","15285","0.0-0.0-2.0-1.3","null","<div style=""font-size:60px; color: white"">+</div>","null","practice","","","","",""
"","","","","","image-keyboard-response","18","15493","0.0-0.0-2.0-2.3","null","../data/img/test/square/square51_3.png","null","practice","Bad","0","Noinclude","",""
"","","","","","html-keyboard-response","19","16876","0.0-0.0-2.0-3.3","1382","<p> </p>","j","practice","Bad","1","坏人","yes",""
"","","","","","html-keyboard-response","20","18172","0.0-0.0-2.0-4.3","1295","<p style =' color : white'>你认为刚才你的判断是?</p>","a","practice","","","","no","正确"
"","","","","","html-keyboard-response","21","18674","0.0-0.0-2.0-5.3","null","<span style='color:GreenYellow; font-size: 70px;'>正确! </span>","null","practice","","","","",""
"","","","","","html-keyboard-response","22","19180","0.0-0.0-2.0-1.4","null","<div style=""font-size:60px; color: white"">+</div>","null","practice","","","","",""
"","","","","","image-keyboard-response","23","19388","0.0-0.0-2.0-2.4","null","../data/img/test/triangle/triangle27_4.png","null","practice","Good","0","Noinclude","",""
"","","","","","html-keyboard-response","24","20892","0.0-0.0-2.0-3.4","1503","<p> </p>","l","practice","Good","1","好人","yes",""
"","","","","","html-keyboard-response","25","22194","0.0-0.0-2.0-4.4","1302","<p style =' color : white'>你认为刚才你的判断是?</p>","a","practice","","","","no","正确"
"","","","","","html-keyboard-response","26","22701","0.0-0.0-2.0-5.4","null","<span style='color:GreenYellow; font-size: 70px;'>正确! </span>","null","practice","","","","",""
"","","","","","html-keyboard-response","27","23213","0.0-0.0-2.0-1.5","null","<div style=""font-size:60px; color: white"">+</div>","null","practice","","","","",""
"","","","","","image-keyboard-response","28","23420","0.0-0.0-2.0-2.5","null","../data/img/test/triangle/triangle97_3.png","null","practice","Good","0","Noinclude","",""
"","","","","","html-keyboard-response","29","25005","0.0-0.0-2.0-3.5","1584","<p> </p>","k","practice","Good","1","好人","yes",""
"","","","","","html-keyboard-response","30","26349","0.0-0.0-2.0-4.5","1343","<p style =' color : white'>你认为刚才你的判断是?</p>","a","practice","","","","no","正确"
"","","","","","html-keyboard-response","31","26860","0.0-0.0-2.0-5.5","null","<span style='color:GreenYellow; font-size: 70px;'>正确! </span>","null","practice","","","","",""
"","","","","","html-keyboard-response","32","27368","0.0-0.0-2.0-1.6","null","<div style=""font-size:60px; color: white"">+</div>","null","practice","","","","",""
"","","","","","image-keyboard-response","33","27576","0.0-0.0-2.0-2.6","null","../data/img/test/square/square61_2.png","null","practice","Bad","0","Noinclude","",""
"","","","","","html-keyboard-response","34","28996","0.0-0.0-2.0-3.6","1418","<p> </p>","j","practice","Bad","0","无信息","yes",""
"","","","","","html-keyboard-response","35","30126","0.0-0.0-2.0-4.6","1130","<p style =' color : white'>你认为刚才你的判断是?</p>","d","practice","","","","no","错误"
"","","","","","html-keyboard-response","36","30637","0.0-0.0-2.0-5.6","null","<span style='color:red; font-size: 70px;'>错误! </span>","null","practice","","","","",""
"","","","","","html-keyboard-response","37","31149","0.0-0.0-2.0-1.7","null","<div style=""font-size:60px; color: white"">+</div>","null","practice","","","","",""
"","","","","","image-keyboard-response","38","31354","0.0-0.0-2.0-2.7","null","../data/img/test/circle/circle27_5.png","null","practice","No_info","0","Noinclude","",""
"","","","","","html-keyboard-response","39","32955","0.0-0.0-2.0-3.7","1600","<p> </p>","l","practice","No_info","1","无信息","yes",""
"","","","","","html-keyboard-response","40","34293","0.0-0.0-2.0-4.7","1337","<p style =' color : white'>你认为刚才你的判断是?</p>","d","practice","","","","no","正确"
"","","","","","html-keyboard-response","41","34804","0.0-0.0-2.0-5.7","null","<span style='color:GreenYellow; font-size: 70px;'>正确! </span>","null","practice","","","","",""
"","","","","","html-keyboard-response","42","35317","0.0-0.0-2.0-1.8","null","<div style=""font-size:60px; color: white"">+</div>","null","practice","","","","",""
"","","","","","image-keyboard-response","43","35520","0.0-0.0-2.0-2.8","null","../data/img/test/triangle/triangle17_5.png","null","practice","Good","0","Noinclude","",""
"","","","","","html-keyboard-response","44","37533","0.0-0.0-2.0-3.8","null","<p> </p>","null","practice","Good","0","","yes",""
"","","","","","html-keyboard-response","45","39537","0.0-0.0-2.0-4.8","null","<p style =' color : white'>你认为刚才你的判断是?</p>","null","practice","","","","no",""
"","","","","","html-keyboard-response","46","40044","0.0-0.0-2.0-5.8","null","<span style='color:red; font-size: 70px;'>错误! </span>","null","practice","","","","",""
"","","","","","html-keyboard-response","47","40553","0.0-0.0-2.0-1.9","null","<div style=""font-size:60px; color: white"">+</div>","null","practice","","","","",""
"","","","","","image-keyboard-response","48","40761","0.0-0.0-2.0-2.9","null","../data/img/test/triangle/triangle58_1.png","null","practice","Good","0","Noinclude","",""
"","","","","","html-keyboard-response","49","41783","0.0-0.0-2.0-3.9","1022","<p> </p>","l","practice","Good","1","好人","yes",""
"","","","","","html-keyboard-response","50","43490","0.0-0.0-2.0-4.9","1706","<p style =' color : white'>你认为刚才你的判断是?</p>","d","practice","","","","no","错误"
"","","","","","html-keyboard-response","51","43997","0.0-0.0-2.0-5.9","null","<span style='color:GreenYellow; font-size: 70px;'>正确! </span>","null","practice","","","","",""
"","","","","","html-keyboard-response","52","44504","0.0-0.0-2.0-1.10","null","<div style=""font-size:60px; color: white"">+</div>","null","practice","","","","",""
"","","","","","image-keyboard-response","53","44716","0.0-0.0-2.0-2.10","null","../data/img/test/circle/circle36_1.png","null","practice","No_info","0","Noinclude","",""
"","","","","","html-keyboard-response","54","46080","0.0-0.0-2.0-3.10","1364","<p> </p>","l","practice","No_info","1","无信息","yes",""
"","","","","","html-keyboard-response","55","46962","0.0-0.0-2.0-4.10","881","<p style =' color : white'>你认为刚才你的判断是?</p>","a","practice","","","","no","正确"
"","","","","","html-keyboard-response","56","47469","0.0-0.0-2.0-5.10","null","<span style='color:GreenYellow; font-size: 70px;'>正确! </span>","null","practice","","","","",""
"","","","","","html-keyboard-response","57","47976","0.0-0.0-2.0-1.11","null","<div style=""font-size:60px; color: white"">+</div>","null","practice","","","","",""
"","","","","","image-keyboard-response","58","48187","0.0-0.0-2.0-2.11","null","../data/img/test/triangle/triangle90_4.png","null","practice","Good","0","Noinclude","",""
"","","","","","html-keyboard-response","59","49152","0.0-0.0-2.0-3.11","963","<p> </p>","l","practice","Good","0","无信息","yes",""
"","","","","","html-keyboard-response","60","50409","0.0-0.0-2.0-4.11","1257","<p style =' color : white'>你认为刚才你的判断是?</p>","a","practice","","","","no","错误"
"","","","","","html-keyboard-response","61","50914","0.0-0.0-2.0-5.11","null","<span style='color:red; font-size: 70px;'>错误! </span>","null","practice","","","","",""
"","","","","","html-keyboard-response","62","51428","0.0-0.0-2.0-1.12","null","<div style=""font-size:60px; color: white"">+</div>","null","practice","","","","",""
"","","","","","image-keyboard-response","63","51634","0.0-0.0-2.0-2.12","null","../data/img/test/circle/circle77_1.png","null","practice","No_info","0","Noinclude","",""
"","","","","","html-keyboard-response","64","53644","0.0-0.0-2.0-3.12","null","<p> </p>","null","practice","No_info","0","","yes",""
"","","","","","html-keyboard-response","65","54920","0.0-0.0-2.0-4.12","1275","<p style =' color : white'>你认为刚才你的判断是?</p>","a","practice","","","","no","错误"
"","","","","","html-keyboard-response","66","55426","0.0-0.0-2.0-5.12","null","<span style='color:red; font-size: 70px;'>错误! </span>","null","practice","","","","",""
"","","","","","html-keyboard-response","67","55932","0.0-0.0-2.0-1.13","null","<div style=""font-size:60px; color: white"">+</div>","null","practice","","","","",""
"","","","","","image-keyboard-response","68","56140","0.0-0.0-2.0-2.13","null","../data/img/test/square/square67_1.png","null","practice","Bad","0","Noinclude","",""
"","","","","","html-keyboard-response","69","57457","0.0-0.0-2.0-3.13","1316","<p> </p>","k","practice","Bad","1","坏人","yes",""
"","","","","","html-keyboard-response","70","58629","0.0-0.0-2.0-4.13","1172","<p style =' color : white'>你认为刚才你的判断是?</p>","a","practice","","","","no","错误"
"","","","","","html-keyboard-response","71","59140","0.0-0.0-2.0-5.13","null","<span style='color:GreenYellow; font-size: 70px;'>正确! </span>","null","practice","","","","",""
"","","","","","html-keyboard-response","72","59651","0.0-0.0-2.0-1.14","null","<div style=""font-size:60px; color: white"">+</div>","null","practice","","","","",""
"","","","","","image-keyboard-response","73","59860","0.0-0.0-2.0-2.14","null","../data/img/test/square/square3_5.png","null","practice","Bad","0","Noinclude","",""
"","","","","","html-keyboard-response","74","61868","0.0-0.0-2.0-3.14","null","<p> </p>","null","practice","Bad","0","","yes",""
"","","","","","html-keyboard-response","75","63328","0.0-0.0-2.0-4.14","1459","<p style =' color : white'>你认为刚才你的判断是?</p>","d","practice","","","","no","错误"
"","","","","","html-keyboard-response","76","63835","0.0-0.0-2.0-5.14","null","<span style='color:red; font-size: 70px;'>错误! </span>","null","practice","","","","",""
"","","","","","html-keyboard-response","77","64348","0.0-0.0-2.0-1.15","null","<div style=""font-size:60px; color: white"">+</div>","null","practice","","","","",""
"","","","","","image-keyboard-response","78","64554","0.0-0.0-2.0-2.15","null","../data/img/test/triangle/triangle5_4.png","null","practice","Good","0","Noinclude","",""
"","","","","","html-keyboard-response","79","66563","0.0-0.0-2.0-3.15","null","<p> </p>","null","practice","Good","0","","yes",""
"","","","","","html-keyboard-response","80","67752","0.0-0.0-2.0-4.15","1188","<p style =' color : white'>你认为刚才你的判断是?</p>","a","practice","","","","no","错误"
"","","","","","html-keyboard-response","81","68256","0.0-0.0-2.0-5.15","null","<span style='color:red; font-size: 70px;'>错误! </span>","null","practice","","","","",""
"","","","","","html-keyboard-response","82","68764","0.0-0.0-2.0-1.16","null","<div style=""font-size:60px; color: white"">+</div>","null","practice","","","","",""
"","","","","","image-keyboard-response","83","68970","0.0-0.0-2.0-2.16","null","../data/img/test/circle/circle65_3.png","null","practice","No_info","0","Noinclude","",""
"","","","","","html-keyboard-response","84","70260","0.0-0.0-2.0-3.16","1289","<p> </p>","j","practice","No_info","1","无信息","yes",""
"","","","","","html-keyboard-response","85","71492","0.0-0.0-2.0-4.16","1231","<p style =' color : white'>你认为刚才你的判断是?</p>","d","practice","","","","no","错误"
"","","","","","html-keyboard-response","86","72004","0.0-0.0-2.0-5.16","null","<span style='color:GreenYellow; font-size: 70px;'>正确! </span>","null","practice","","","","",""
"","","","","","html-keyboard-response","87","72516","0.0-0.0-2.0-1.17","null","<div style=""font-size:60px; color: white"">+</div>","null","practice","","","","",""
"","","","","","image-keyboard-response","88","72722","0.0-0.0-2.0-2.17","null","../data/img/test/triangle/triangle42_2.png","null","practice","Good","0","Noinclude","",""
"","","","","","html-keyboard-response","89","74227","0.0-0.0-2.0-3.17","1505","<p> </p>","j","practice","Good","1","好人","yes",""
"","","","","","html-keyboard-response","90","76007","0.0-0.0-2.0-4.17","1780","<p style =' color : white'>你认为刚才你的判断是?</p>","d","practice","","","","no","正确"
"","","","","","html-keyboard-response","91","76513","0.0-0.0-2.0-5.17","null","<span style='color:GreenYellow; font-size: 70px;'>正确! </span>","null","practice","","","","",""
"","","","","","html-keyboard-response","92","77020","0.0-0.0-2.0-1.18","null","<div style=""font-size:60px; color: white"">+</div>","null","practice","","","","",""
"","","","","","image-keyboard-response","93","77228","0.0-0.0-2.0-2.18","null","../data/img/test/square/square16_1.png","null","practice","Bad","0","Noinclude","",""
"","","","","","html-keyboard-response","94","79235","0.0-0.0-2.0-3.18","null","<p> </p>","null","practice","Bad","0","","yes",""
"","","","","","html-keyboard-response","95","81245","0.0-0.0-2.0-4.18","null","<p style =' color : white'>你认为刚才你的判断是?</p>","null","practice","","","","no",""
"","","","","","html-keyboard-response","96","81754","0.0-0.0-2.0-5.18","null","<span style='color:red; font-size: 70px;'>错误! </span>","null","practice","","","","",""
"","","","","","html-keyboard-response","97","82260","0.0-0.0-2.0-1.19","null","<div style=""font-size:60px; color: white"">+</div>","null","practice","","","","",""
"","","","","","image-keyboard-response","98","82468","0.0-0.0-2.0-2.19","null","../data/img/test/square/square91_4.png","null","practice","Bad","0","Noinclude","",""
"","","","","","html-keyboard-response","99","84010","0.0-0.0-2.0-3.19","1541","<p> </p>","k","practice","Bad","1","坏人","yes",""
"","","","","","html-keyboard-response","100","85257","0.0-0.0-2.0-4.19","1246","<p style =' color : white'>你认为刚才你的判断是?</p>","d","practice","","","","no","错误"
"","","","","","html-keyboard-response","101","85764","0.0-0.0-2.0-5.19","null","<span style='color:GreenYellow; font-size: 70px;'>正确! </span>","null","practice","","","","",""
"","","","","","html-keyboard-response","102","86272","0.0-0.0-2.0-1.20","null","<div style=""font-size:60px; color: white"">+</div>","null","practice","","","","",""
"","","","","","image-keyboard-response","103","86481","0.0-0.0-2.0-2.20","null","../data/img/test/square/square23_3.png","null","practice","Bad","0","Noinclude","",""
"","","","","","html-keyboard-response","104","88129","0.0-0.0-2.0-3.20","1647","<p> </p>","k","practice","Bad","1","坏人","yes",""
"","","","","","html-keyboard-response","105","89202","0.0-0.0-2.0-4.20","1073","<p style =' color : white'>你认为刚才你的判断是?</p>","a","practice","","","","no","正确"
"","","","","","html-keyboard-response","106","89704","0.0-0.0-2.0-5.20","null","<span style='color:GreenYellow; font-size: 70px;'>正确! </span>","null","practice","","","","",""
"","","","","","html-keyboard-response","107","90211","0.0-0.0-2.0-1.21","null","<div style=""font-size:60px; color: white"">+</div>","null","practice","","","","",""
"","","","","","image-keyboard-response","108","90420","0.0-0.0-2.0-2.21","null","../data/img/test/triangle/triangle20_5.png","null","practice","Good","0","Noinclude","",""
"","","","","","html-keyboard-response","109","91861","0.0-0.0-2.0-3.21","1440","<p> </p>","j","practice","Good","1","好人","yes",""
"","","","","","html-keyboard-response","110","93443","0.0-0.0-2.0-4.21","1581","<p style =' color : white'>你认为刚才你的判断是?</p>","a","practice","","","","no","错误"
"","","","","","html-keyboard-response","111","93954","0.0-0.0-2.0-5.21","null","<span style='color:GreenYellow; font-size: 70px;'>正确! </span>","null","practice","","","","",""
"","","","","","html-keyboard-response","112","94455","0.0-0.0-2.0-1.22","null","<div style=""font-size:60px; color: white"">+</div>","null","practice","","","","",""
"","","","","","image-keyboard-response","113","94668","0.0-0.0-2.0-2.22","null","../data/img/test/circle/circle92_3.png","null","practice","No_info","0","Noinclude","",""
"","","","","","html-keyboard-response","114","96676","0.0-0.0-2.0-3.22","null","<p> </p>","null","practice","No_info","0","","yes",""
"","","","","","html-keyboard-response","115","98357","0.0-0.0-2.0-4.22","1680","<p style =' color : white'>你认为刚才你的判断是?</p>","d","practice","","","","no","正确"
"","","","","","html-keyboard-response","116","98868","0.0-0.0-2.0-5.22","null","<span style='color:red; font-size: 70px;'>错误! </span>","null","practice","","","","",""
"","","","","","html-keyboard-response","117","99377","0.0-0.0-2.0-1.23","null","<div style=""font-size:60px; color: white"">+</div>","null","practice","","","","",""
"","","","","","image-keyboard-response","118","99587","0.0-0.0-2.0-2.23","null","../data/img/test/triangle/triangle26_3.png","null","practice","Good","0","Noinclude","",""
"","","","","","html-keyboard-response","119","101225","0.0-0.0-2.0-3.23","1637","<p> </p>","j","practice","Good","0","坏人","yes",""
"","","","","","html-keyboard-response","120","102795","0.0-0.0-2.0-4.23","1570","<p style =' color : white'>你认为刚才你的判断是?</p>","d","practice","","","","no","错误"
"","","","","","html-keyboard-response","121","103303","0.0-0.0-2.0-5.23","null","<span style='color:red; font-size: 70px;'>错误! </span>","null","practice","","","","",""
"","","","","","html-keyboard-response","122","103807","0.0-0.0-2.0-1.24","null","<div style=""font-size:60px; color: white"">+</div>","null","practice","","","","",""
"","","","","","image-keyboard-response","123","104015","0.0-0.0-2.0-2.24","null","../data/img/test/circle/circle4_1.png","null","practice","No_info","0","Noinclude","",""
"","","","","","html-keyboard-response","124","105360","0.0-0.0-2.0-3.24","1344","<p> </p>","l","practice","No_info","1","无信息","yes",""
"","","","","","html-keyboard-response","125","106920","0.0-0.0-2.0-4.24","1560","<p style =' color : white'>你认为刚才你的判断是?</p>","d","practice","","","","no","正确"
"","","","","","html-keyboard-response","126","107428","0.0-0.0-2.0-5.24","null","<span style='color:GreenYellow; font-size: 70px;'>正确! </span>","null","practice","","","","",""
"","","","","","html-keyboard-response","127","107937","0.0-0.0-2.0-1.25","null","<div style=""font-size:60px; color: white"">+</div>","null","practice","","","","",""
"","","","","","image-keyboard-response","128","108148","0.0-0.0-2.0-2.25","null","../data/img/test/square/square88_5.png","null","practice","Bad","0","Noinclude","",""
"","","","","","html-keyboard-response","129","110154","0.0-0.0-2.0-3.25","null","<p> </p>","null","practice","Bad","0","","yes",""
"","","","","","html-keyboard-response","130","112163","0.0-0.0-2.0-4.25","null","<p style =' color : white'>你认为刚才你的判断是?</p>","null","practice","","","","no",""
"","","","","","html-keyboard-response","131","112671","0.0-0.0-2.0-5.25","null","<span style='color:red; font-size: 70px;'>错误! </span>","null","practice","","","","",""
"","","","","","html-keyboard-response","132","113176","0.0-0.0-2.0-1.26","null","<div style=""font-size:60px; color: white"">+</div>","null","practice","","","","",""
"","","","","","image-keyboard-response","133","113387","0.0-0.0-2.0-2.26","null","../data/img/test/circle/circle97_2.png","null","practice","No_info","0","Noinclude","",""
"","","","","","html-keyboard-response","134","114808","0.0-0.0-2.0-3.26","1421","<p> </p>","j","practice","No_info","1","无信息","yes",""
"","","","","","html-keyboard-response","135","116168","0.0-0.0-2.0-4.26","1358","<p style =' color : white'>你认为刚才你的判断是?</p>","a","practice","","","","no","错误"
"","","","","","html-keyboard-response","136","116675","0.0-0.0-2.0-5.26","null","<span style='color:GreenYellow; font-size: 70px;'>正确! </span>","null","practice","","","","",""
"","","","","","html-keyboard-response","137","117187","0.0-0.0-2.0-1.27","null","<div style=""font-size:60px; color: white"">+</div>","null","practice","","","","",""
"","","","","","image-keyboard-response","138","117396","0.0-0.0-2.0-2.27","null","../data/img/test/square/square64_2.png","null","practice","Bad","0","Noinclude","",""
"","","","","","html-keyboard-response","139","119400","0.0-0.0-2.0-3.27","null","<p> </p>","null","practice","Bad","0","","yes",""
"","","","","","html-keyboard-response","140","120487","0.0-0.0-2.0-4.27","1086","<p style =' color : white'>你认为刚才你的判断是?</p>","d","practice","","","","no","错误"
"","","","","","html-keyboard-response","141","120992","0.0-0.0-2.0-5.27","null","<span style='color:red; font-size: 70px;'>错误! </span>","null","practice","","","","",""
"","","","","","html-keyboard-response","142","121495","0.0-0.0-2.0-1.28","null","<div style=""font-size:60px; color: white"">+</div>","null","practice","","","","",""
"","","","","","image-keyboard-response","143","121703","0.0-0.0-2.0-2.28","null","../data/img/test/circle/circle15_4.png","null","practice","No_info","0","Noinclude","",""
"","","","","","html-keyboard-response","144","123674","0.0-0.0-2.0-3.28","1970","<p> </p>","k","practice","No_info","1","无信息","yes",""
"","","","","","html-keyboard-response","145","125268","0.0-0.0-2.0-4.28","1593","<p style =' color : white'>你认为刚才你的判断是?</p>","d","practice","","","","no","正确"
"","","","","","html-keyboard-response","146","125780","0.0-0.0-2.0-5.28","null","<span style='color:GreenYellow; font-size: 70px;'>正确! </span>","null","practice","","","","",""
"","","","","","html-keyboard-response","147","126289","0.0-0.0-2.0-1.29","null","<div style=""font-size:60px; color: white"">+</div>","null","practice","","","","",""
"","","","","","image-keyboard-response","148","126495","0.0-0.0-2.0-2.29","null","../data/img/test/triangle/triangle49_3.png","null","practice","Good","0","Noinclude","",""
"","","","","","html-keyboard-response","149","128503","0.0-0.0-2.0-3.29","null","<p> </p>","null","practice","Good","0","","yes",""
"","","","","","html-keyboard-response","150","129721","0.0-0.0-2.0-4.29","1217","<p style =' color : white'>你认为刚才你的判断是?</p>","a","practice","","","","no","错误"
"","","","","","html-keyboard-response","151","130228","0.0-0.0-2.0-5.29","null","<span style='color:red; font-size: 70px;'>错误! </span>","null","practice","","","","",""
"","","","","","html-keyboard-response","152","132974","0.0-0.0-3.0","2743","<style>.context{color:white; font-size: 35px; line-height:40px}</style>                              <div><p class='context'>您正确回答了57% 的试次。</p>","j","","","","","",""
"","","","","","html-keyboard-response","153","137498","0.0-0.0-4.0","4522","<p style =' color : white'>the following is fomal experiment!</p>","j","","","","","",""
"","","","","","html-keyboard-response","154","138003","0.0-0.0-5.0-0.0","null","<div style=""font-size:60px; color: white"">+</div>","null","","","","","",""
"","","","","","image-keyboard-response","155","138212","0.0-0.0-5.0-1.0","null","../data/img/test/square/square34_1.png","null","","Bad","0","Noinclude","",""
"","","","","","html-keyboard-response","156","139418","0.0-0.0-5.0-2.0","1205","<p> </p>","k","","Bad","0","无信息","yes",""
"","","","","","html-keyboard-response","157","140970","0.0-0.0-5.0-3.0","1551","<p style =' color : white'>你认为刚才你的判断是?</p>","a","","","","","no","正确"
"","","","","","html-keyboard-response","158","141476","0.0-0.0-5.0-0.1","null","<div style=""font-size:60px; color: white"">+</div>","null","","","","","",""
"","","","","","image-keyboard-response","159","141684","0.0-0.0-5.0-1.1","null","../data/img/test/triangle/triangle15_1.png","null","","Good","0","Noinclude","",""
"","","","","","html-keyboard-response","160","143623","0.0-0.0-5.0-2.1","1938","<p> </p>","l","","Good","1","好人","yes",""
"","","","","","html-keyboard-response","161","145293","0.0-0.0-5.0-3.1","1670","<p style =' color : white'>你认为刚才你的判断是?</p>","a","","","","","no","错误"
"","","","","","html-keyboard-response","162","145803","0.0-0.0-5.0-0.2","null","<div style=""font-size:60px; color: white"">+</div>","null","","","","","",""
"","","","","","image-keyboard-response","163","146012","0.0-0.0-5.0-1.2","null","../data/img/test/circle/circle54_1.png","null","","No_info","0","Noinclude","",""
"","","","","","html-keyboard-response","164","147470","0.0-0.0-5.0-2.2","1457","<p> </p>","k","","No_info","1","无信息","yes",""
"","","","","","html-keyboard-response","165","148626","0.0-0.0-5.0-3.2","1156","<p style =' color : white'>你认为刚才你的判断是?</p>","d","","","","","no","错误"
"","","","","","html-keyboard-response","166","149127","0.0-0.0-5.0-0.3","null","<div style=""font-size:60px; color: white"">+</div>","null","","","","","",""
"","","","","","image-keyboard-response","167","149336","0.0-0.0-5.0-1.3","null","../data/img/test/circle/circle13_3.png","null","","No_info","0","Noinclude","",""
"","","","","","html-keyboard-response","168","150466","0.0-0.0-5.0-2.3","1129","<p> </p>","k","","No_info","1","无信息","yes",""
"","","","","","html-keyboard-response","169","151700","0.0-0.0-5.0-3.3","1234","<p style =' color : white'>你认为刚才你的判断是?</p>","a","","","","","no","正确"
"","","","","","html-keyboard-response","170","152212","0.0-0.0-5.0-0.4","null","<div style=""font-size:60px; color: white"">+</div>","null","","","","","",""
"","","","","","image-keyboard-response","171","152418","0.0-0.0-5.0-1.4","null","../data/img/test/square/square1_2.png","null","","Bad","0","Noinclude","",""
"","","","","","html-keyboard-response","172","153699","0.0-0.0-5.0-2.4","1281","<p> </p>","k","","Bad","0","无信息","yes",""
"","","","","","html-keyboard-response","173","155626","0.0-0.0-5.0-3.4","1926","<p style =' color : white'>你认为刚才你的判断是?</p>","a","","","","","no","错误"
"","","","","","html-keyboard-response","174","156130","0.0-0.0-5.0-0.5","null","<div style=""font-size:60px; color: white"">+</div>","null","","","","","",""
"","","","","","image-keyboard-response","175","156336","0.0-0.0-5.0-1.5","null","../data/img/test/circle/circle23_3.png","null","","No_info","0","Noinclude","",""
"","","","","","html-keyboard-response","176","158089","0.0-0.0-5.0-2.5","1752","<p> </p>","l","","No_info","0","坏人","yes",""
"","","","","","html-keyboard-response","177","159372","0.0-0.0-5.0-3.5","1282","<p style =' color : white'>你认为刚才你的判断是?</p>","a","","","","","no","错误"
"","","","","","html-keyboard-response","178","159880","0.0-0.0-5.0-0.6","null","<div style=""font-size:60px; color: white"">+</div>","null","","","","","",""
"","","","","","image-keyboard-response","179","160087","0.0-0.0-5.0-1.6","null","../data/img/test/circle/circle16_3.png","null","","No_info","0","Noinclude","",""
"","","","","","html-keyboard-response","180","161602","0.0-0.0-5.0-2.6","1514","<p> </p>","j","","No_info","1","无信息","yes",""
"","","","","","html-keyboard-response","181","162820","0.0-0.0-5.0-3.6","1218","<p style =' color : white'>你认为刚才你的判断是?</p>","a","","","","","no","正确"
"","","","","","html-keyboard-response","182","163331","0.0-0.0-5.0-0.7","null","<div style=""font-size:60px; color: white"">+</div>","null","","","","","",""
"","","","","","image-keyboard-response","183","163536","0.0-0.0-5.0-1.7","null","../data/img/test/triangle/triangle95_3.png","null","","Good","0","Noinclude","",""
"","","","","","html-keyboard-response","184","165301","0.0-0.0-5.0-2.7","1764","<p> </p>","k","","Good","1","好人","yes",""
"","","","","","html-keyboard-response","185","166275","0.0-0.0-5.0-3.7","974","<p style =' color : white'>你认为刚才你的判断是?</p>","a","","","","","no","正确"
"","","","","","html-keyboard-response","186","166787","0.0-0.0-5.0-0.8","null","<div style=""font-size:60px; color: white"">+</div>","null","","","","","",""
"","","","","","image-keyboard-response","187","166996","0.0-0.0-5.0-1.8","null","../data/img/test/triangle/triangle16_5.png","null","","Good","0","Noinclude","",""
"","","","","","html-keyboard-response","188","168999","0.0-0.0-5.0-2.8","null","<p> </p>","null","","Good","0","","yes",""
"","","","","","html-keyboard-response","189","171012","0.0-0.0-5.0-3.8","null","<p style =' color : white'>你认为刚才你的判断是?</p>","null","","","","","no",""
"","","","","","html-keyboard-response","190","171519","0.0-0.0-5.0-0.9","null","<div style=""font-size:60px; color: white"">+</div>","null","","","","","",""
"","","","","","image-keyboard-response","191","171732","0.0-0.0-5.0-1.9","null","../data/img/test/triangle/triangle27_5.png","null","","Good","0","Noinclude","",""
"","","","","","html-keyboard-response","192","172827","0.0-0.0-5.0-2.9","1095","<p> </p>","k","","Good","1","好人","yes",""
"","","","","","html-keyboard-response","193","173675","0.0-0.0-5.0-3.9","848","<p style =' color : white'>你认为刚才你的判断是?</p>","a","","","","","no","正确"
"","","","","","html-keyboard-response","194","174186","0.0-0.0-5.0-0.10","null","<div style=""font-size:60px; color: white"">+</div>","null","","","","","",""
"","","","","","image-keyboard-response","195","174395","0.0-0.0-5.0-1.10","null","../data/img/test/triangle/triangle55_4.png","null","","Good","0","Noinclude","",""
"","","","","","html-keyboard-response","196","176307","0.0-0.0-5.0-2.10","1911","<p> </p>","l","","Good","1","好人","yes",""
"","","","","","html-keyboard-response","197","177522","0.0-0.0-5.0-3.10","1214","<p style =' color : white'>你认为刚才你的判断是?</p>","a","","","","","no","正确"
"","","","","","html-keyboard-response","198","178027","0.0-0.0-5.0-0.11","null","<div style=""font-size:60px; color: white"">+</div>","null","","","","","",""
"","","","","","image-keyboard-response","199","178234","0.0-0.0-5.0-1.11","null","../data/img/test/square/square88_3.png","null","","Bad","0","Noinclude","",""
"","","","","","html-keyboard-response","200","179864","0.0-0.0-5.0-2.11","1629","<p> </p>","l","","Bad","1","坏人","yes",""
"","","","","","html-keyboard-response","201","180667","0.0-0.0-5.0-3.11","803","<p style =' color : white'>你认为刚才你的判断是?</p>","a","","","","","no","错误"
"","","","","","html-keyboard-response","202","181177","0.0-0.0-5.0-0.12","null","<div style=""font-size:60px; color: white"">+</div>","null","","","","","",""
"","","","","","image-keyboard-response","203","181386","0.0-0.0-5.0-1.12","null","../data/img/test/circle/circle58_3.png","null","","No_info","0","Noinclude","",""
"","","","","","html-keyboard-response","204","183157","0.0-0.0-5.0-2.12","1770","<p> </p>","k","","No_info","0","坏人","yes",""
"","","","","","html-keyboard-response","205","185063","0.0-0.0-5.0-3.12","1906","<p style =' color : white'>你认为刚才你的判断是?</p>","d","","","","","no","错误"
"","","","","","html-keyboard-response","206","185569","0.0-0.0-5.0-0.13","null","<div style=""font-size:60px; color: white"">+</div>","null","","","","","",""
"","","","","","image-keyboard-response","207","185775","0.0-0.0-5.0-1.13","null","../data/img/test/triangle/triangle54_2.png","null","","Good","0","Noinclude","",""
"","","","","","html-keyboard-response","208","186872","0.0-0.0-5.0-2.13","1097","<p> </p>","k","","Good","1","好人","yes",""
"","","","","","html-keyboard-response","209","188430","0.0-0.0-5.0-3.13","1558","<p style =' color : white'>你认为刚才你的判断是?</p>","d","","","","","no","正确"
"","","","","","html-keyboard-response","210","188937","0.0-0.0-5.0-0.14","null","<div style=""font-size:60px; color: white"">+</div>","null","","","","","",""
"","","","","","image-keyboard-response","211","189148","0.0-0.0-5.0-1.14","null","../data/img/test/square/square39_5.png","null","","Bad","0","Noinclude","",""
"","","","","","html-keyboard-response","212","190696","0.0-0.0-5.0-2.14","1547","<p> </p>","k","","Bad","1","坏人","yes",""
"","","","","","html-keyboard-response","213","191607","0.0-0.0-5.0-3.14","911","<p style =' color : white'>你认为刚才你的判断是?</p>","a","","","","","no","错误"
"","","","","","html-keyboard-response","214","192114","0.0-0.0-5.0-0.15","null","<div style=""font-size:60px; color: white"">+</div>","null","","","","","",""
"","","","","","image-keyboard-response","215","192319","0.0-0.0-5.0-1.15","null","../data/img/test/square/square39_4.png","null","","Bad","0","Noinclude","",""
"","","","","","html-keyboard-response","216","194120","0.0-0.0-5.0-2.15","1800","<p> </p>","j","","Bad","0","好人","yes",""
"","","","","","html-keyboard-response","217","195575","0.0-0.0-5.0-3.15","1454","<p style =' color : white'>你认为刚才你的判断是?</p>","a","","","","","no","错误"
"","","","","","html-keyboard-response","218","196080","0.0-0.0-5.0-0.16","null","<div style=""font-size:60px; color: white"">+</div>","null","","","","","",""
"","","","","","image-keyboard-response","219","196286","0.0-0.0-5.0-1.16","null","../data/img/test/circle/circle34_3.png","null","","No_info","0","Noinclude","",""
"","","","","","html-keyboard-response","220","197676","0.0-0.0-5.0-2.16","1389","<p> </p>","k","","No_info","1","无信息","yes",""
"","","","","","html-keyboard-response","221","199477","0.0-0.0-5.0-3.16","1801","<p style =' color : white'>你认为刚才你的判断是?</p>","d","","","","","no","正确"
"","","","","","html-keyboard-response","222","199986","0.0-0.0-5.0-0.17","null","<div style=""font-size:60px; color: white"">+</div>","null","","","","","",""
"","","","","","image-keyboard-response","223","200195","0.0-0.0-5.0-1.17","null","../data/img/test/circle/circle28_2.png","null","","No_info","0","Noinclude","",""
"","","","","","html-keyboard-response","224","201547","0.0-0.0-5.0-2.17","1352","<p> </p>","k","","No_info","1","无信息","yes",""
"","","","","","html-keyboard-response","225","202641","0.0-0.0-5.0-3.17","1093","<p style =' color : white'>你认为刚才你的判断是?</p>","d","","","","","no","正确"
"","","","","","html-keyboard-response","226","203142","0.0-0.0-5.0-0.18","null","<div style=""font-size:60px; color: white"">+</div>","null","","","","","",""
"","","","","","image-keyboard-response","227","203353","0.0-0.0-5.0-1.18","null","../data/img/test/square/square6_1.png","null","","Bad","0","Noinclude","",""
"","","","","","html-keyboard-response","228","205313","0.0-0.0-5.0-2.18","1960","<p> </p>","l","","Bad","1","坏人","yes",""
"","","","","","html-keyboard-response","229","206241","0.0-0.0-5.0-3.18","927","<p style =' color : white'>你认为刚才你的判断是?</p>","d","","","","","no","错误"
"","","","","","html-keyboard-response","230","206745","0.0-0.0-5.0-0.19","null","<div style=""font-size:60px; color: white"">+</div>","null","","","","","",""
"","","","","","image-keyboard-response","231","206953","0.0-0.0-5.0-1.19","null","../data/img/test/circle/circle76_3.png","null","","No_info","0","Noinclude","",""
"","","","","","html-keyboard-response","232","207944","0.0-0.0-5.0-2.19","991","<p> </p>","k","","No_info","0","坏人","yes",""
"","","","","","html-keyboard-response","233","209769","0.0-0.0-5.0-3.19","1825","<p style =' color : white'>你认为刚才你的判断是?</p>","d","","","","","no","错误"
"","","","","","html-keyboard-response","234","210272","0.0-0.0-5.0-0.20","null","<div style=""font-size:60px; color: white"">+</div>","null","","","","","",""
"","","","","","image-keyboard-response","235","210482","0.0-0.0-5.0-1.20","null","../data/img/test/circle/circle82_5.png","null","","No_info","0","Noinclude","",""
"","","","","","html-keyboard-response","236","211549","0.0-0.0-5.0-2.20","1066","<p> </p>","l","","No_info","1","无信息","yes",""
"","","","","","html-keyboard-response","237","212732","0.0-0.0-5.0-3.20","1183","<p style =' color : white'>你认为刚才你的判断是?</p>","a","","","","","no","正确"
"","","","","","html-keyboard-response","238","213241","0.0-0.0-5.0-0.21","null","<div style=""font-size:60px; color: white"">+</div>","null","","","","","",""
"","","","","","image-keyboard-response","239","213447","0.0-0.0-5.0-1.21","null","../data/img/test/square/square36_1.png","null","","Bad","0","Noinclude","",""
"","","","","","html-keyboard-response","240","214861","0.0-0.0-5.0-2.21","1413","<p> </p>","l","","Bad","0","无信息","yes",""
"","","","","","html-keyboard-response","241","216386","0.0-0.0-5.0-3.21","1524","<p style =' color : white'>你认为刚才你的判断是?</p>","d","","","","","no","错误"
"","","","","","html-keyboard-response","242","216897","0.0-0.0-5.0-0.22","null","<div style=""font-size:60px; color: white"">+</div>","null","","","","","",""
"","","","","","image-keyboard-response","243","217103","0.0-0.0-5.0-1.22","null","../data/img/test/triangle/triangle88_2.png","null","","Good","0","Noinclude","",""
"","","","","","html-keyboard-response","244","218415","0.0-0.0-5.0-2.22","1311","<p> </p>","l","","Good","1","好人","yes",""
"","","","","","html-keyboard-response","245","220055","0.0-0.0-5.0-3.22","1640","<p style =' color : white'>你认为刚才你的判断是?</p>","a","","","","","no","正确"
"","","","","","html-keyboard-response","246","220562","0.0-0.0-5.0-0.23","null","<div style=""font-size:60px; color: white"">+</div>","null","","","","","",""
"","","","","","image-keyboard-response","247","220769","0.0-0.0-5.0-1.23","null","../data/img/test/triangle/triangle49_2.png","null","","Good","0","Noinclude","",""
"","","","","","html-keyboard-response","248","222551","0.0-0.0-5.0-2.23","1781","<p> </p>","k","","Good","1","好人","yes",""
"","","","","","html-keyboard-response","249","223511","0.0-0.0-5.0-3.23","959","<p style =' color : white'>你认为刚才你的判断是?</p>","a","","","","","no","正确"
"","","","","","html-keyboard-response","250","224019","0.0-0.0-5.0-0.24","null","<div style=""font-size:60px; color: white"">+</div>","null","","","","","",""
"","","","","","image-keyboard-response","251","224228","0.0-0.0-5.0-1.24","null","../data/img/test/square/square52_1.png","null","","Bad","0","Noinclude","",""
"","","","","","html-keyboard-response","252","225558","0.0-0.0-5.0-2.24","1330","<p> </p>","k","","Bad","1","坏人","yes",""
"","","","","","html-keyboard-response","253","227192","0.0-0.0-5.0-3.24","1633","<p style =' color : white'>你认为刚才你的判断是?</p>","d","","","","","no","正确"
"","","","","","html-keyboard-response","254","227699","0.0-0.0-5.0-0.25","null","<div style=""font-size:60px; color: white"">+</div>","null","","","","","",""
"","","","","","image-keyboard-response","255","227905","0.0-0.0-5.0-1.25","null","../data/img/test/circle/circle51_2.png","null","","No_info","0","Noinclude","",""
"","","","","","html-keyboard-response","256","229667","0.0-0.0-5.0-2.25","1760","<p> </p>","l","","No_info","1","无信息","yes",""
"","","","","","html-keyboard-response","257","231419","0.0-0.0-5.0-3.25","1752","<p style =' color : white'>你认为刚才你的判断是?</p>","a","","","","","no","错误"
"","","","","","html-keyboard-response","258","231927","0.0-0.0-5.0-0.26","null","<div style=""font-size:60px; color: white"">+</div>","null","","","","","",""
"","","","","","image-keyboard-response","259","232139","0.0-0.0-5.0-1.26","null","../data/img/test/triangle/triangle23_2.png","null","","Good","0","Noinclude","",""
"","","","","","html-keyboard-response","260","233443","0.0-0.0-5.0-2.26","1303","<p> </p>","j","","Good","1","好人","yes",""
"","","","","","html-keyboard-response","261","234995","0.0-0.0-5.0-3.26","1551","<p style =' color : white'>你认为刚才你的判断是?</p>","a","","","","","no","正确"
"","","","","","html-keyboard-response","262","235507","0.0-0.0-5.0-0.27","null","<div style=""font-size:60px; color: white"">+</div>","null","","","","","",""
"","","","","","image-keyboard-response","263","235711","0.0-0.0-5.0-1.27","null","../data/img/test/triangle/triangle69_4.png","null","","Good","0","Noinclude","",""
"","","","","","html-keyboard-response","264","236964","0.0-0.0-5.0-2.27","1252","<p> </p>","k","","Good","1","好人","yes",""
"","","","","","html-keyboard-response","265","238358","0.0-0.0-5.0-3.27","1394","<p style =' color : white'>你认为刚才你的判断是?</p>","d","","","","","no","错误"
"","","","","","html-keyboard-response","266","238864","0.0-0.0-5.0-0.28","null","<div style=""font-size:60px; color: white"">+</div>","null","","","","","",""
"","","","","","image-keyboard-response","267","239070","0.0-0.0-5.0-1.28","null","../data/img/test/circle/circle14_2.png","null","","No_info","0","Noinclude","",""
"","","","","","html-keyboard-response","268","240400","0.0-0.0-5.0-2.28","1329","<p> </p>","k","","No_info","0","坏人","yes",""
"","","","","","html-keyboard-response","269","241565","0.0-0.0-5.0-3.28","1165","<p style =' color : white'>你认为刚才你的判断是?</p>","d","","","","","no","错误"
"","","","","","html-keyboard-response","270","242075","0.0-0.0-5.0-0.29","null","<div style=""font-size:60px; color: white"">+</div>","null","","","","","",""
"","","","","","image-keyboard-response","271","242278","0.0-0.0-5.0-1.29","null","../data/img/test/triangle/triangle69_2.png","null","","Good","0","Noinclude","",""
"","","","","","html-keyboard-response","272","244279","0.0-0.0-5.0-2.29","2000","<p> </p>","j","","Good","1","好人","yes",""
"","","","","","html-keyboard-response","273","245321","0.0-0.0-5.0-3.29","1041","<p style =' color : white'>你认为刚才你的判断是?</p>","d","","","","","no","正确"
"","","","","","html-keyboard-response","274","245825","0.0-0.0-5.0-0.30","null","<div style=""font-size:60px; color: white"">+</div>","null","","","","","",""
"","","","","","image-keyboard-response","275","246033","0.0-0.0-5.0-1.30","null","../data/img/test/circle/circle96_2.png","null","","No_info","0","Noinclude","",""
"","","","","","html-keyboard-response","276","247658","0.0-0.0-5.0-2.30","1624","<p> </p>","j","","No_info","1","无信息","yes",""
"","","","","","html-keyboard-response","277","249186","0.0-0.0-5.0-3.30","1527","<p style =' color : white'>你认为刚才你的判断是?</p>","a","","","","","no","正确"
"","","","","","html-keyboard-response","278","249699","0.0-0.0-5.0-0.31","null","<div style=""font-size:60px; color: white"">+</div>","null","","","","","",""
"","","","","","image-keyboard-response","279","249906","0.0-0.0-5.0-1.31","null","../data/img/test/triangle/triangle18_4.png","null","","Good","0","Noinclude","",""
"","","","","","html-keyboard-response","280","251186","0.0-0.0-5.0-2.31","1279","<p> </p>","k","","Good","1","好人","yes",""
"","","","","","html-keyboard-response","281","253037","0.0-0.0-5.0-3.31","1851","<p style =' color : white'>你认为刚才你的判断是?</p>","d","","","","","no","正确"
"","","","","","html-keyboard-response","282","253546","0.0-0.0-5.0-0.32","null","<div style=""font-size:60px; color: white"">+</div>","null","","","","","",""
"","","","","","image-keyboard-response","283","253752","0.0-0.0-5.0-1.32","null","../data/img/test/circle/circle33_2.png","null","","No_info","0","Noinclude","",""
"","","","","","html-keyboard-response","284","255700","0.0-0.0-5.0-2.32","1947","<p> </p>","l","","No_info","0","好人","yes",""
"","","","","","html-keyboard-response","285","257392","0.0-0.0-5.0-3.32","1692","<p style =' color : white'>你认为刚才你的判断是?</p>","d","","","","","no","正确"
"","","","","","html-keyboard-response","286","257897","0.0-0.0-5.0-0.33","null","<div style=""font-size:60px; color: white"">+</div>","null","","","","","",""
"","","","","","image-keyboard-response","287","258102","0.0-0.0-5.0-1.33","null","../data/img/test/triangle/triangle43_3.png","null","","Good","0","Noinclude","",""
"","","","","","html-keyboard-response","288","259491","0.0-0.0-5.0-2.33","1388","<p> </p>","j","","Good","1","好人","yes",""
"","","","","","html-keyboard-response","289","261130","0.0-0.0-5.0-3.33","1639","<p style =' color : white'>你认为刚才你的判断是?</p>","a","","","","","no","错误"
"","","","","","html-keyboard-response","290","261643","0.0-0.0-5.0-0.34","null","<div style=""font-size:60px; color: white"">+</div>","null","","","","","",""
"","","","","","image-keyboard-response","291","261849","0.0-0.0-5.0-1.34","null","../data/img/test/circle/circle81_1.png","null","","No_info","0","Noinclude","",""
"","","","","","html-keyboard-response","292","262973","0.0-0.0-5.0-2.34","1124","<p> </p>","l","","No_info","1","无信息","yes",""
"","","","","","html-keyboard-response","293","264061","0.0-0.0-5.0-3.34","1087","<p style =' color : white'>你认为刚才你的判断是?</p>","d","","","","","no","正确"
"","","","","","html-keyboard-response","294","264569","0.0-0.0-5.0-0.35","null","<div style=""font-size:60px; color: white"">+</div>","null","","","","","",""
"","","","","","image-keyboard-response","295","264775","0.0-0.0-5.0-1.35","null","../data/img/test/circle/circle95_5.png","null","","No_info","0","Noinclude","",""
"","","","","","html-keyboard-response","296","266539","0.0-0.0-5.0-2.35","1763","<p> </p>","k","","No_info","1","无信息","yes",""
"","","","","","html-keyboard-response","297","267544","0.0-0.0-5.0-3.35","1004","<p style =' color : white'>你认为刚才你的判断是?</p>","a","","","","","no","错误"
"","","","","","html-keyboard-response","298","268051","0.0-0.0-5.0-0.36","null","<div style=""font-size:60px; color: white"">+</div>","null","","","","","",""
"","","","","","image-keyboard-response","299","268257","0.0-0.0-5.0-1.36","null","../data/img/test/triangle/triangle48_3.png","null","","Good","0","Noinclude","",""
"","","","","","html-keyboard-response","300","269597","0.0-0.0-5.0-2.36","1339","<p> </p>","j","","Good","0","无信息","yes",""
"","","","","","html-keyboard-response","301","271003","0.0-0.0-5.0-3.36","1406","<p style =' color : white'>你认为刚才你的判断是?</p>","d","","","","","no","错误"
"","","","","","html-keyboard-response","302","271515","0.0-0.0-5.0-0.37","null","<div style=""font-size:60px; color: white"">+</div>","null","","","","","",""
"","","","","","image-keyboard-response","303","271718","0.0-0.0-5.0-1.37","null","../data/img/test/triangle/triangle98_4.png","null","","Good","0","Noinclude","",""
"","","","","","html-keyboard-response","304","273204","0.0-0.0-5.0-2.37","1485","<p> </p>","j","","Good","1","好人","yes",""
"","","","","","html-keyboard-response","305","274037","0.0-0.0-5.0-3.37","832","<p style =' color : white'>你认为刚才你的判断是?</p>","d","","","","","no","正确"
"","","","","","html-keyboard-response","306","274547","0.0-0.0-5.0-0.38","null","<div style=""font-size:60px; color: white"">+</div>","null","","","","","",""
"","","","","","image-keyboard-response","307","274752","0.0-0.0-5.0-1.38","null","../data/img/test/triangle/triangle86_1.png","null","","Good","0","Noinclude","",""
"","","","","","html-keyboard-response","308","276289","0.0-0.0-5.0-2.38","1536","<p> </p>","l","","Good","1","好人","yes",""
"","","","","","html-keyboard-response","309","277853","0.0-0.0-5.0-3.38","1563","<p style =' color : white'>你认为刚才你的判断是?</p>","d","","","","","no","正确"
"","","","","","html-keyboard-response","310","278362","0.0-0.0-5.0-0.39","null","<div style=""font-size:60px; color: white"">+</div>","null","","","","","",""
"","","","","","image-keyboard-response","311","278569","0.0-0.0-5.0-1.39","null","../data/img/test/circle/circle18_3.png","null","","No_info","0","Noinclude","",""
"","","","","","html-keyboard-response","312","280148","0.0-0.0-5.0-2.39","1578","<p> </p>","l","","No_info","1","无信息","yes",""
"","","","","","html-keyboard-response","313","281564","0.0-0.0-5.0-3.39","1415","<p style =' color : white'>你认为刚才你的判断是?</p>","a","","","","","no","错误"
"","","","","","html-keyboard-response","314","282070","0.0-0.0-5.0-0.40","null","<div style=""font-size:60px; color: white"">+</div>","null","","","","","",""
"","","","","","image-keyboard-response","315","282281","0.0-0.0-5.0-1.40","null","../data/img/test/square/square4_5.png","null","","Bad","0","Noinclude","",""
"","","","","","html-keyboard-response","316","283660","0.0-0.0-5.0-2.40","1378","<p> </p>","k","","Bad","1","坏人","yes",""
"","","","","","html-keyboard-response","317","285124","0.0-0.0-5.0-3.40","1464","<p style =' color : white'>你认为刚才你的判断是?</p>","d","","","","","no","正确"
"","","","","","html-keyboard-response","318","285630","0.0-0.0-5.0-0.41","null","<div style=""font-size:60px; color: white"">+</div>","null","","","","","",""
"","","","","","image-keyboard-response","319","285838","0.0-0.0-5.0-1.41","null","../data/img/test/triangle/triangle51_4.png","null","","Good","0","Noinclude","",""
"","","","","","html-keyboard-response","320","287031","0.0-0.0-5.0-2.41","1192","<p> </p>","j","","Good","1","好人","yes",""
"","","","","","html-keyboard-response","321","288720","0.0-0.0-5.0-3.41","1688","<p style =' color : white'>你认为刚才你的判断是?</p>","a","","","","","no","正确"
"","","","","","html-keyboard-response","322","289226","0.0-0.0-5.0-0.42","null","<div style=""font-size:60px; color: white"">+</div>","null","","","","","",""
"","","","","","image-keyboard-response","323","289433","0.0-0.0-5.0-1.42","null","../data/img/test/triangle/triangle77_2.png","null","","Good","0","Noinclude","",""
"","","","","","html-keyboard-response","324","290646","0.0-0.0-5.0-2.42","1212","<p> </p>","l","","Good","0","坏人","yes",""
"","","","","","html-keyboard-response","325","291509","0.0-0.0-5.0-3.42","862","<p style =' color : white'>你认为刚才你的判断是?</p>","a","","","","","no","正确"
"","","","","","html-keyboard-response","326","292015","0.0-0.0-5.0-0.43","null","<div style=""font-size:60px; color: white"">+</div>","null","","","","","",""
"","","","","","image-keyboard-response","327","292226","0.0-0.0-5.0-1.43","null","../data/img/test/triangle/triangle0_2.png","null","","Good","0","Noinclude","",""
"","","","","","html-keyboard-response","328","294201","0.0-0.0-5.0-2.43","1974","<p> </p>","j","","Good","1","好人","yes",""
"","","","","","html-keyboard-response","329","295318","0.0-0.0-5.0-3.43","1117","<p style =' color : white'>你认为刚才你的判断是?</p>","a","","","","","no","正确"
"","","","","","html-keyboard-response","330","295822","0.0-0.0-5.0-0.44","null","<div style=""font-size:60px; color: white"">+</div>","null","","","","","",""
"","","","","","image-keyboard-response","331","296030","0.0-0.0-5.0-1.44","null","../data/img/test/triangle/triangle89_5.png","null","","Good","0","Noinclude","",""
"","","","","","html-keyboard-response","332","298006","0.0-0.0-5.0-2.44","1975","<p> </p>","l","","Good","1","好人","yes",""
"","","","","","html-keyboard-response","333","299233","0.0-0.0-5.0-3.44","1227","<p style =' color : white'>你认为刚才你的判断是?</p>","a","","","","","no","正确"
"","","","","","html-keyboard-response","334","299747","0.0-0.0-5.0-0.45","null","<div style=""font-size:60px; color: white"">+</div>","null","","","","","",""
"","","","","","image-keyboard-response","335","299952","0.0-0.0-5.0-1.45","null","../data/img/test/triangle/triangle59_4.png","null","","Good","0","Noinclude","",""
"","","","","","html-keyboard-response","336","301284","0.0-0.0-5.0-2.45","1331","<p> </p>","l","","Good","1","好人","yes",""
"","","","","","html-keyboard-response","337","302139","0.0-0.0-5.0-3.45","854","<p style =' color : white'>你认为刚才你的判断是?</p>","a","","","","","no","正确"
"","","","","","html-keyboard-response","338","302650","0.0-0.0-5.0-0.46","null","<div style=""font-size:60px; color: white"">+</div>","null","","","","","",""
"","","","","","image-keyboard-response","339","302858","0.0-0.0-5.0-1.46","null","../data/img/test/square/square54_1.png","null","","Bad","0","Noinclude","",""
"","","","","","html-keyboard-response","340","304265","0.0-0.0-5.0-2.46","1406","<p> </p>","l","","Bad","0","无信息","yes",""
"","","","","","html-keyboard-response","341","305533","0.0-0.0-5.0-3.46","1267","<p style =' color : white'>你认为刚才你的判断是?</p>","a","","","","","no","错误"
"","","","","","html-keyboard-response","342","306042","0.0-0.0-5.0-0.47","null","<div style=""font-size:60px; color: white"">+</div>","null","","","","","",""
"","","","","","image-keyboard-response","343","306249","0.0-0.0-5.0-1.47","null","../data/img/test/circle/circle14_1.png","null","","No_info","0","Noinclude","",""
"","","","","","html-keyboard-response","344","308259","0.0-0.0-5.0-2.47","null","<p> </p>","null","","No_info","0","","yes",""
"","","","","","html-keyboard-response","345","310267","0.0-0.0-5.0-3.47","null","<p style =' color : white'>你认为刚才你的判断是?</p>","null","","","","","no",""
"","","","","","html-keyboard-response","346","310777","0.0-0.0-5.0-0.48","null","<div style=""font-size:60px; color: white"">+</div>","null","","","","","",""
"","","","","","image-keyboard-response","347","310985","0.0-0.0-5.0-1.48","null","../data/img/test/triangle/triangle53_1.png","null","","Good","0","Noinclude","",""
"","","","","","html-keyboard-response","348","312101","0.0-0.0-5.0-2.48","1115","<p> </p>","j","","Good","1","好人","yes",""
"","","","","","html-keyboard-response","349","313511","0.0-0.0-5.0-3.48","1409","<p style =' color : white'>你认为刚才你的判断是?</p>","d","","","","","no","正确"
"","","","","","html-keyboard-response","350","314018","0.0-0.0-5.0-0.49","null","<div style=""font-size:60px; color: white"">+</div>","null","","","","","",""
"","","","","","image-keyboard-response","351","314225","0.0-0.0-5.0-1.49","null","../data/img/test/square/square26_5.png","null","","Bad","0","Noinclude","",""
"","","","","","html-keyboard-response","352","316234","0.0-0.0-5.0-2.49","null","<p> </p>","null","","Bad","0","","yes",""
"","","","","","html-keyboard-response","353","317762","0.0-0.0-5.0-3.49","1527","<p style =' color : white'>你认为刚才你的判断是?</p>","d","","","","","no","错误"
"","","","","","html-keyboard-response","354","318271","0.0-0.0-5.0-0.50","null","<div style=""font-size:60px; color: white"">+</div>","null","","","","","",""
"","","","","","image-keyboard-response","355","318483","0.0-0.0-5.0-1.50","null","../data/img/test/circle/circle39_1.png","null","","No_info","0","Noinclude","",""
"","","","","","html-keyboard-response","356","319635","0.0-0.0-5.0-2.50","1152","<p> </p>","l","","No_info","1","无信息","yes",""
"","","","","","html-keyboard-response","357","320617","0.0-0.0-5.0-3.50","982","<p style =' color : white'>你认为刚才你的判断是?</p>","d","","","","","no","正确"
"","","","","","html-keyboard-response","358","321130","0.0-0.0-5.0-0.51","null","<div style=""font-size:60px; color: white"">+</div>","null","","","","","",""
"","","","","","image-keyboard-response","359","321335","0.0-0.0-5.0-1.51","null","../data/img/test/circle/circle88_2.png","null","","No_info","0","Noinclude","",""
"","","","","","html-keyboard-response","360","322579","0.0-0.0-5.0-2.51","1242","<p> </p>","k","","No_info","1","无信息","yes",""
"","","","","","html-keyboard-response","361","323817","0.0-0.0-5.0-3.51","1237","<p style =' color : white'>你认为刚才你的判断是?</p>","d","","","","","no","正确"
"","","","","","html-keyboard-response","362","324327","0.0-0.0-5.0-0.52","null","<div style=""font-size:60px; color: white"">+</div>","null","","","","","",""
"","","","","","image-keyboard-response","363","324534","0.0-0.0-5.0-1.52","null","../data/img/test/circle/circle88_5.png","null","","No_info","0","Noinclude","",""
"","","","","","html-keyboard-response","364","325557","0.0-0.0-5.0-2.52","1022","<p> </p>","l","","No_info","1","无信息","yes",""
"","","","","","html-keyboard-response","365","327144","0.0-0.0-5.0-3.52","1587","<p style =' color : white'>你认为刚才你的判断是?</p>","d","","","","","no","正确"
"","","","","","html-keyboard-response","366","327647","0.0-0.0-5.0-0.53","null","<div style=""font-size:60px; color: white"">+</div>","null","","","","","",""
"","","","","","image-keyboard-response","367","327854","0.0-0.0-5.0-1.53","null","../data/img/test/triangle/triangle96_3.png","null","","Good","0","Noinclude","",""
"","","","","","html-keyboard-response","368","329262","0.0-0.0-5.0-2.53","1408","<p> </p>","j","","Good","1","好人","yes",""
"","","","","","html-keyboard-response","369","330388","0.0-0.0-5.0-3.53","1125","<p style =' color : white'>你认为刚才你的判断是?</p>","a","","","","","no","正确"
"","","","","","html-keyboard-response","370","330899","0.0-0.0-5.0-0.54","null","<div style=""font-size:60px; color: white"">+</div>","null","","","","","",""
"","","","","","image-keyboard-response","371","331101","0.0-0.0-5.0-1.54","null","../data/img/test/square/square49_2.png","null","","Bad","0","Noinclude","",""
"","","","","","html-keyboard-response","372","332996","0.0-0.0-5.0-2.54","1894","<p> </p>","j","","Bad","0","好人","yes",""
"","","","","","html-keyboard-response","373","334455","0.0-0.0-5.0-3.54","1459","<p style =' color : white'>你认为刚才你的判断是?</p>","d","","","","","no","正确"
"","","","","","html-keyboard-response","374","334963","0.0-0.0-5.0-0.55","null","<div style=""font-size:60px; color: white"">+</div>","null","","","","","",""
"","","","","","image-keyboard-response","375","335167","0.0-0.0-5.0-1.55","null","../data/img/test/circle/circle47_4.png","null","","No_info","0","Noinclude","",""
"","","","","","html-keyboard-response","376","337093","0.0-0.0-5.0-2.55","1925","<p> </p>","k","","No_info","0","好人","yes",""
"","","","","","html-keyboard-response","377","338572","0.0-0.0-5.0-3.55","1478","<p style =' color : white'>你认为刚才你的判断是?</p>","a","","","","","no","错误"
"","","","","","html-keyboard-response","378","339078","0.0-0.0-5.0-0.56","null","<div style=""font-size:60px; color: white"">+</div>","null","","","","","",""
"","","","","","image-keyboard-response","379","339286","0.0-0.0-5.0-1.56","null","../data/img/test/triangle/triangle24_3.png","null","","Good","0","Noinclude","",""
"","","","","","html-keyboard-response","380","340541","0.0-0.0-5.0-2.56","1254","<p> </p>","j","","Good","1","好人","yes",""
"","","","","","html-keyboard-response","381","341900","0.0-0.0-5.0-3.56","1359","<p style =' color : white'>你认为刚才你的判断是?</p>","d","","","","","no","错误"
"","","","","","html-keyboard-response","382","342405","0.0-0.0-5.0-0.57","null","<div style=""font-size:60px; color: white"">+</div>","null","","","","","",""
"","","","","","image-keyboard-response","383","342613","0.0-0.0-5.0-1.57","null","../data/img/test/square/square70_4.png","null","","Bad","0","Noinclude","",""
"","","","","","html-keyboard-response","384","344279","0.0-0.0-5.0-2.57","1664","<p> </p>","k","","Bad","0","无信息","yes",""
"","","","","","html-keyboard-response","385","345274","0.0-0.0-5.0-3.57","995","<p style =' color : white'>你认为刚才你的判断是?</p>","d","","","","","no","错误"
"","","","","","html-keyboard-response","386","345785","0.0-0.0-5.0-0.58","null","<div style=""font-size:60px; color: white"">+</div>","null","","","","","",""
"","","","","","image-keyboard-response","387","345989","0.0-0.0-5.0-1.58","null","../data/img/test/circle/circle12_4.png","null","","No_info","0","Noinclude","",""
"","","","","","html-keyboard-response","388","347245","0.0-0.0-5.0-2.58","1255","<p> </p>","l","","No_info","1","无信息","yes",""
"","","","","","html-keyboard-response","389","348478","0.0-0.0-5.0-3.58","1233","<p style =' color : white'>你认为刚才你的判断是?</p>","d","","","","","no","正确"
"","","","","","html-keyboard-response","390","348986","0.0-0.0-5.0-0.59","null","<div style=""font-size:60px; color: white"">+</div>","null","","","","","",""
"","","","","","image-keyboard-response","391","349194","0.0-0.0-5.0-1.59","null","../data/img/test/circle/circle26_5.png","null","","No_info","0","Noinclude","",""
"","","","","","html-keyboard-response","392","350496","0.0-0.0-5.0-2.59","1301","<p> </p>","k","","No_info","1","无信息","yes",""
"","","","","","html-keyboard-response","393","351661","0.0-0.0-5.0-3.59","1164","<p style =' color : white'>你认为刚才你的判断是?</p>","d","","","","","no","错误"
"","","","","","html-keyboard-response","394","407258","0.0-0.0-6.0","55597","<style>.context{color:white; font-size: 35px; line-height:40px}</style>                              <div><p class='context'>您正确回答了66% 的试次。</p>","d","","","","","",""
"","","","","","html-keyboard-response","395","407767","0.0-0.0-7.0-0.0","null","<div style=""font-size:60px; color: white"">+</div>","null","","","","","",""
"","","","","","image-keyboard-response","396","407977","0.0-0.0-7.0-1.0","null","../data/img/test/square/square43_5.png","null","","Bad","0","Noinclude","",""
"","","","","","html-keyboard-response","397","409277","0.0-0.0-7.0-2.0","1299","<p> </p>","l","","Bad","0","无信息","yes",""
"","","","","","html-keyboard-response","398","411075","0.0-0.0-7.0-3.0","1798","<p style =' color : white'>你认为刚才你的判断是?</p>","a","","","","","no","错误"
"","","","","","html-keyboard-response","399","411584","0.0-0.0-7.0-0.1","null","<div style=""font-size:60px; color: white"">+</div>","null","","","","","",""
"","","","","","image-keyboard-response","400","411791","0.0-0.0-7.0-1.1","null","../data/img/test/circle/circle51_3.png","null","","No_info","0","Noinclude","",""
"","","","","","html-keyboard-response","401","413801","0.0-0.0-7.0-2.1","null","<p> </p>","null","","No_info","0","","yes",""
"","","","","","html-keyboard-response","402","415809","0.0-0.0-7.0-3.1","null","<p style =' color : white'>你认为刚才你的判断是?</p>","null","","","","","no",""
"","","","","","html-keyboard-response","403","416317","0.0-0.0-7.0-0.2","null","<div style=""font-size:60px; color: white"">+</div>","null","","","","","",""
"","","","","","image-keyboard-response","404","416526","0.0-0.0-7.0-1.2","null","../data/img/test/circle/circle30_4.png","null","","No_info","0","Noinclude","",""
"","","","","","html-keyboard-response","405","417537","0.0-0.0-7.0-2.2","1010","<p> </p>","k","","No_info","1","无信息","yes",""
"","","","","","html-keyboard-response","406","418617","0.0-0.0-7.0-3.2","1080","<p style =' color : white'>你认为刚才你的判断是?</p>","d","","","","","no","正确"
"","","","","","html-keyboard-response","407","419128","0.0-0.0-7.0-0.3","null","<div style=""font-size:60px; color: white"">+</div>","null","","","","","",""
"","","","","","image-keyboard-response","408","419334","0.0-0.0-7.0-1.3","null","../data/img/test/square/square92_5.png","null","","Bad","0","Noinclude","",""
"","","","","","html-keyboard-response","409","420851","0.0-0.0-7.0-2.3","1516","<p> </p>","k","","Bad","0","好人","yes",""
"","","","","","html-keyboard-response","410","422496","0.0-0.0-7.0-3.3","1644","<p style =' color : white'>你认为刚才你的判断是?</p>","a","","","","","no","正确"
"","","","","","html-keyboard-response","411","423001","0.0-0.0-7.0-0.4","null","<div style=""font-size:60px; color: white"">+</div>","null","","","","","",""
"","","","","","image-keyboard-response","412","423210","0.0-0.0-7.0-1.4","null","../data/img/test/square/square94_4.png","null","","Bad","0","Noinclude","",""
"","","","","","html-keyboard-response","413","424492","0.0-0.0-7.0-2.4","1281","<p> </p>","k","","Bad","0","无信息","yes",""
"","","","","","html-keyboard-response","414","425987","0.0-0.0-7.0-3.4","1495","<p style =' color : white'>你认为刚才你的判断是?</p>","d","","","","","no","错误"
"","","","","","html-keyboard-response","415","426492","0.0-0.0-7.0-0.5","null","<div style=""font-size:60px; color: white"">+</div>","null","","","","","",""
"","","","","","image-keyboard-response","416","426701","0.0-0.0-7.0-1.5","null","../data/img/test/square/square77_5.png","null","","Bad","0","Noinclude","",""
"","","","","","html-keyboard-response","417","428680","0.0-0.0-7.0-2.5","1978","<p> </p>","k","","Bad","0","好人","yes",""
"","","","","","html-keyboard-response","418","429834","0.0-0.0-7.0-3.5","1153","<p style =' color : white'>你认为刚才你的判断是?</p>","d","","","","","no","正确"
"","","","","","html-keyboard-response","419","430346","0.0-0.0-7.0-0.6","null","<div style=""font-size:60px; color: white"">+</div>","null","","","","","",""
"","","","","","image-keyboard-response","420","430550","0.0-0.0-7.0-1.6","null","../data/img/test/triangle/triangle54_3.png","null","","Good","0","Noinclude","",""
"","","","","","html-keyboard-response","421","432471","0.0-0.0-7.0-2.6","1917","<p> </p>","k","","Good","1","好人","yes",""
"","","","","","html-keyboard-response","422","433988","0.0-0.0-7.0-3.6","1516","<p style =' color : white'>你认为刚才你的判断是?</p>","a","","","","","no","错误"
"","","","","","html-keyboard-response","423","434489","0.0-0.0-7.0-0.7","null","<div style=""font-size:60px; color: white"">+</div>","null","","","","","",""
"","","","","","image-keyboard-response","424","434693","0.0-0.0-7.0-1.7","null","../data/img/test/circle/circle61_3.png","null","","No_info","0","Noinclude","",""
"","","","","","html-keyboard-response","425","435851","0.0-0.0-7.0-2.7","1157","<p> </p>","k","","No_info","0","坏人","yes",""
"","","","","","html-keyboard-response","426","436789","0.0-0.0-7.0-3.7","938","<p style =' color : white'>你认为刚才你的判断是?</p>","d","","","","","no","错误"
"","","","","","html-keyboard-response","427","437293","0.0-0.0-7.0-0.8","null","<div style=""font-size:60px; color: white"">+</div>","null","","","","","",""
"","","","","","image-keyboard-response","428","437501","0.0-0.0-7.0-1.8","null","../data/img/test/circle/circle49_2.png","null","","No_info","0","Noinclude","",""
"","","","","","html-keyboard-response","429","438971","0.0-0.0-7.0-2.8","1470","<p> </p>","k","","No_info","1","无信息","yes",""
"","","","","","html-keyboard-response","430","440101","0.0-0.0-7.0-3.8","1130","<p style =' color : white'>你认为刚才你的判断是?</p>","d","","","","","no","正确"
"","","","","","html-keyboard-response","431","440607","0.0-0.0-7.0-0.9","null","<div style=""font-size:60px; color: white"">+</div>","null","","","","","",""
"","","","","","image-keyboard-response","432","440817","0.0-0.0-7.0-1.9","null","../data/img/test/circle/circle93_5.png","null","","No_info","0","Noinclude","",""
"","","","","","html-keyboard-response","433","441885","0.0-0.0-7.0-2.9","1067","<p> </p>","k","","No_info","1","无信息","yes",""
"","","","","","html-keyboard-response","434","443193","0.0-0.0-7.0-3.9","1308","<p style =' color : white'>你认为刚才你的判断是?</p>","a","","","","","no","正确"
"","","","","","html-keyboard-response","435","443701","0.0-0.0-7.0-0.10","null","<div style=""font-size:60px; color: white"">+</div>","null","","","","","",""
"","","","","","image-keyboard-response","436","443909","0.0-0.0-7.0-1.10","null","../data/img/test/circle/circle72_2.png","null","","No_info","0","Noinclude","",""
"","","","","","html-keyboard-response","437","445388","0.0-0.0-7.0-2.10","1478","<p> </p>","k","","No_info","0","好人","yes",""
"","","","","","html-keyboard-response","438","446103","0.0-0.0-7.0-3.10","715","<p style =' color : white'>你认为刚才你的判断是?</p>","a","","","","","no","正确"
"","","","","","html-keyboard-response","439","446607","0.0-0.0-7.0-0.11","null","<div style=""font-size:60px; color: white"">+</div>","null","","","","","",""
"","","","","","image-keyboard-response","440","446816","0.0-0.0-7.0-1.11","null","../data/img/test/square/square39_3.png","null","","Bad","0","Noinclude","",""
"","","","","","html-keyboard-response","441","448382","0.0-0.0-7.0-2.11","1565","<p> </p>","j","","Bad","0","好人","yes",""
"","","","","","html-keyboard-response","442","449701","0.0-0.0-7.0-3.11","1319","<p style =' color : white'>你认为刚才你的判断是?</p>","a","","","","","no","错误"
"","","","","","html-keyboard-response","443","450209","0.0-0.0-7.0-0.12","null","<div style=""font-size:60px; color: white"">+</div>","null","","","","","",""
"","","","","","image-keyboard-response","444","450417","0.0-0.0-7.0-1.12","null","../data/img/test/triangle/triangle92_3.png","null","","Good","0","Noinclude","",""
"","","","","","html-keyboard-response","445","452067","0.0-0.0-7.0-2.12","1649","<p> </p>","l","","Good","1","好人","yes",""
"","","","","","html-keyboard-response","446","453539","0.0-0.0-7.0-3.12","1471","<p style =' color : white'>你认为刚才你的判断是?</p>","a","","","","","no","正确"
"","","","","","html-keyboard-response","447","454049","0.0-0.0-7.0-0.13","null","<div style=""font-size:60px; color: white"">+</div>","null","","","","","",""
"","","","","","image-keyboard-response","448","454257","0.0-0.0-7.0-1.13","null","../data/img/test/circle/circle92_5.png","null","","No_info","0","Noinclude","",""
"","","","","","html-keyboard-response","449","455960","0.0-0.0-7.0-2.13","1702","<p> </p>","k","","No_info","0","坏人","yes",""
"","","","","","html-keyboard-response","450","457519","0.0-0.0-7.0-3.13","1558","<p style =' color : white'>你认为刚才你的判断是?</p>","a","","","","","no","错误"
"","","","","","html-keyboard-response","451","458025","0.0-0.0-7.0-0.14","null","<div style=""font-size:60px; color: white"">+</div>","null","","","","","",""
"","","","","","image-keyboard-response","452","458233","0.0-0.0-7.0-1.14","null","../data/img/test/square/square48_4.png","null","","Bad","0","Noinclude","",""
"","","","","","html-keyboard-response","453","459621","0.0-0.0-7.0-2.14","1387","<p> </p>","l","","Bad","0","无信息","yes",""
"","","","","","html-keyboard-response","454","461001","0.0-0.0-7.0-3.14","1379","<p style =' color : white'>你认为刚才你的判断是?</p>","a","","","","","no","正确"
"","","","","","html-keyboard-response","455","461513","0.0-0.0-7.0-0.15","null","<div style=""font-size:60px; color: white"">+</div>","null","","","","","",""
"","","","","","image-keyboard-response","456","461717","0.0-0.0-7.0-1.15","null","../data/img/test/triangle/triangle99_1.png","null","","Good","0","Noinclude","",""
"","","","","","html-keyboard-response","457","463683","0.0-0.0-7.0-2.15","1965","<p> </p>","k","","Good","1","好人","yes",""
"","","","","","html-keyboard-response","458","464833","0.0-0.0-7.0-3.15","1150","<p style =' color : white'>你认为刚才你的判断是?</p>","a","","","","","no","错误"
"","","","","","html-keyboard-response","459","465343","0.0-0.0-7.0-0.16","null","<div style=""font-size:60px; color: white"">+</div>","null","","","","","",""
"","","","","","image-keyboard-response","460","465550","0.0-0.0-7.0-1.16","null","../data/img/test/triangle/triangle55_5.png","null","","Good","0","Noinclude","",""
"","","","","","html-keyboard-response","461","467557","0.0-0.0-7.0-2.16","null","<p> </p>","null","","Good","0","","yes",""
"","","","","","html-keyboard-response","462","468392","0.0-0.0-7.0-3.16","834","<p style =' color : white'>你认为刚才你的判断是?</p>","a","","","","","no","正确"
"","","","","","html-keyboard-response","463","468906","0.0-0.0-7.0-0.17","null","<div style=""font-size:60px; color: white"">+</div>","null","","","","","",""
"","","","","","image-keyboard-response","464","469108","0.0-0.0-7.0-1.17","null","../data/img/test/triangle/triangle53_4.png","null","","Good","0","Noinclude","",""
"","","","","","html-keyboard-response","465","470608","0.0-0.0-7.0-2.17","1499","<p> </p>","j","","Good","1","好人","yes",""
"","","","","","html-keyboard-response","466","472294","0.0-0.0-7.0-3.17","1686","<p style =' color : white'>你认为刚才你的判断是?</p>","a","","","","","no","正确"
"","","","","","html-keyboard-response","467","472800","0.0-0.0-7.0-0.18","null","<div style=""font-size:60px; color: white"">+</div>","null","","","","","",""
"","","","","","image-keyboard-response","468","473009","0.0-0.0-7.0-1.18","null","../data/img/test/square/square68_5.png","null","","Bad","0","Noinclude","",""
"","","","","","html-keyboard-response","469","474251","0.0-0.0-7.0-2.18","1241","<p> </p>","k","","Bad","0","无信息","yes",""
"","","","","","html-keyboard-response","470","475448","0.0-0.0-7.0-3.18","1197","<p style =' color : white'>你认为刚才你的判断是?</p>","a","","","","","no","错误"
"","","","","","html-keyboard-response","471","475960","0.0-0.0-7.0-0.19","null","<div style=""font-size:60px; color: white"">+</div>","null","","","","","",""
"","","","","","image-keyboard-response","472","476166","0.0-0.0-7.0-1.19","null","../data/img/test/triangle/triangle8_4.png","null","","Good","0","Noinclude","",""
"","","","","","html-keyboard-response","473","477631","0.0-0.0-7.0-2.19","1464","<p> </p>","k","","Good","0","无信息","yes",""
"","","","","","html-keyboard-response","474","479557","0.0-0.0-7.0-3.19","1925","<p style =' color : white'>你认为刚才你的判断是?</p>","d","","","","","no","正确"
"","","","","","html-keyboard-response","475","480060","0.0-0.0-7.0-0.20","null","<div style=""font-size:60px; color: white"">+</div>","null","","","","","",""
"","","","","","image-keyboard-response","476","480273","0.0-0.0-7.0-1.20","null","../data/img/test/triangle/triangle11_2.png","null","","Good","0","Noinclude","",""
"","","","","","html-keyboard-response","477","481447","0.0-0.0-7.0-2.20","1173","<p> </p>","l","","Good","1","好人","yes",""
"","","","","","html-keyboard-response","478","482859","0.0-0.0-7.0-3.20","1411","<p style =' color : white'>你认为刚才你的判断是?</p>","d","","","","","no","正确"
"","","","","","html-keyboard-response","479","483367","0.0-0.0-7.0-0.21","null","<div style=""font-size:60px; color: white"">+</div>","null","","","","","",""
"","","","","","image-keyboard-response","480","483574","0.0-0.0-7.0-1.21","null","../data/img/test/triangle/triangle59_2.png","null","","Good","0","Noinclude","",""
"","","","","","html-keyboard-response","481","485159","0.0-0.0-7.0-2.21","1585","<p> </p>","j","","Good","1","好人","yes",""
"","","","","","html-keyboard-response","482","487167","0.0-0.0-7.0-3.21","null","<p style =' color : white'>你认为刚才你的判断是?</p>","null","","","","","no",""
"","","","","","html-keyboard-response","483","487681","0.0-0.0-7.0-0.22","null","<div style=""font-size:60px; color: white"">+</div>","null","","","","","",""
"","","","","","image-keyboard-response","484","487886","0.0-0.0-7.0-1.22","null","../data/img/test/triangle/triangle8_5.png","null","","Good","0","Noinclude","",""
"","","","","","html-keyboard-response","485","489107","0.0-0.0-7.0-2.22","1220","<p> </p>","j","","Good","0","坏人","yes",""
"","","","","","html-keyboard-response","486","490421","0.0-0.0-7.0-3.22","1313","<p style =' color : white'>你认为刚才你的判断是?</p>","d","","","","","no","正确"
"","","","","","html-keyboard-response","487","490929","0.0-0.0-7.0-0.23","null","<div style=""font-size:60px; color: white"">+</div>","null","","","","","",""
"","","","","","image-keyboard-response","488","491137","0.0-0.0-7.0-1.23","null","../data/img/test/square/square89_3.png","null","","Bad","0","Noinclude","",""
"","","","","","html-keyboard-response","489","493145","0.0-0.0-7.0-2.23","null","<p> </p>","null","","Bad","0","","yes",""
"","","","","","html-keyboard-response","490","495150","0.0-0.0-7.0-3.23","null","<p style =' color : white'>你认为刚才你的判断是?</p>","null","","","","","no",""
"","","","","","html-keyboard-response","491","495653","0.0-0.0-7.0-0.24","null","<div style=""font-size:60px; color: white"">+</div>","null","","","","","",""
"","","","","","image-keyboard-response","492","495863","0.0-0.0-7.0-1.24","null","../data/img/test/circle/circle22_1.png","null","","No_info","0","Noinclude","",""
"","","","","","html-keyboard-response","493","497585","0.0-0.0-7.0-2.24","1721","<p> </p>","j","","No_info","1","无信息","yes",""
"","","","","","html-keyboard-response","494","499308","0.0-0.0-7.0-3.24","1722","<p style =' color : white'>你认为刚才你的判断是?</p>","d","","","","","no","正确"
"","","","","","html-keyboard-response","495","499816","0.0-0.0-7.0-0.25","null","<div style=""font-size:60px; color: white"">+</div>","null","","","","","",""
"","","","","","image-keyboard-response","496","500025","0.0-0.0-7.0-1.25","null","../data/img/test/circle/circle30_3.png","null","","No_info","0","Noinclude","",""
"","","","","","html-keyboard-response","497","501133","0.0-0.0-7.0-2.25","1107","<p> </p>","j","","No_info","1","无信息","yes",""
"","","","","","html-keyboard-response","498","502473","0.0-0.0-7.0-3.25","1340","<p style =' color : white'>你认为刚才你的判断是?</p>","a","","","","","no","正确"
"","","","","","html-keyboard-response","499","502983","0.0-0.0-7.0-0.26","null","<div style=""font-size:60px; color: white"">+</div>","null","","","","","",""
"","","","","","image-keyboard-response","500","503193","0.0-0.0-7.0-1.26","null","../data/img/test/square/square78_1.png","null","","Bad","0","Noinclude","",""
"","","","","","html-keyboard-response","501","505200","0.0-0.0-7.0-2.26","null","<p> </p>","null","","Bad","0","","yes",""
"","","","","","html-keyboard-response","502","506632","0.0-0.0-7.0-3.26","1431","<p style =' color : white'>你认为刚才你的判断是?</p>","a","","","","","no","正确"
"","","","","","html-keyboard-response","503","507142","0.0-0.0-7.0-0.27","null","<div style=""font-size:60px; color: white"">+</div>","null","","","","","",""
"","","","","","image-keyboard-response","504","507348","0.0-0.0-7.0-1.27","null","../data/img/test/triangle/triangle89_3.png","null","","Good","0","Noinclude","",""
"","","","","","html-keyboard-response","505","509106","0.0-0.0-7.0-2.27","1756","<p> </p>","l","","Good","1","好人","yes",""
"","","","","","html-keyboard-response","506","510672","0.0-0.0-7.0-3.27","1566","<p style =' color : white'>你认为刚才你的判断是?</p>","a","","","","","no","正确"
"","","","","","html-keyboard-response","507","511183","0.0-0.0-7.0-0.28","null","<div style=""font-size:60px; color: white"">+</div>","null","","","","","",""
"","","","","","image-keyboard-response","508","511392","0.0-0.0-7.0-1.28","null","../data/img/test/triangle/triangle13_3.png","null","","Good","0","Noinclude","",""
"","","","","","html-keyboard-response","509","513107","0.0-0.0-7.0-2.28","1714","<p> </p>","j","","Good","0","无信息","yes",""
"","","","","","html-keyboard-response","510","514828","0.0-0.0-7.0-3.28","1720","<p style =' color : white'>你认为刚才你的判断是?</p>","d","","","","","no","错误"
"","","","","","html-keyboard-response","511","515333","0.0-0.0-7.0-0.29","null","<div style=""font-size:60px; color: white"">+</div>","null","","","","","",""
"","","","","","image-keyboard-response","512","515541","0.0-0.0-7.0-1.29","null","../data/img/test/triangle/triangle30_4.png","null","","Good","0","Noinclude","",""
"","","","","","html-keyboard-response","513","517550","0.0-0.0-7.0-2.29","null","<p> </p>","null","","Good","0","","yes",""
"","","","","","html-keyboard-response","514","519059","0.0-0.0-7.0-3.29","1508","<p style =' color : white'>你认为刚才你的判断是?</p>","d","","","","","no","错误"
"","","","","","html-keyboard-response","515","519567","0.0-0.0-7.0-0.30","null","<div style=""font-size:60px; color: white"">+</div>","null","","","","","",""
"","","","","","image-keyboard-response","516","519777","0.0-0.0-7.0-1.30","null","../data/img/test/circle/circle75_5.png","null","","No_info","0","Noinclude","",""
"","","","","","html-keyboard-response","517","521783","0.0-0.0-7.0-2.30","null","<p> </p>","null","","No_info","0","","yes",""
"","","","","","html-keyboard-response","518","523790","0.0-0.0-7.0-3.30","null","<p style =' color : white'>你认为刚才你的判断是?</p>","null","","","","","no",""
"","","","","","html-keyboard-response","519","524300","0.0-0.0-7.0-0.31","null","<div style=""font-size:60px; color: white"">+</div>","null","","","","","",""
"","","","","","image-keyboard-response","520","524508","0.0-0.0-7.0-1.31","null","../data/img/test/circle/circle7_3.png","null","","No_info","0","Noinclude","",""
"","","","","","html-keyboard-response","521","525842","0.0-0.0-7.0-2.31","1333","<p> </p>","j","","No_info","1","无信息","yes",""
"","","","","","html-keyboard-response","522","526973","0.0-0.0-7.0-3.31","1131","<p style =' color : white'>你认为刚才你的判断是?</p>","d","","","","","no","正确"
"","","","","","html-keyboard-response","523","527481","0.0-0.0-7.0-0.32","null","<div style=""font-size:60px; color: white"">+</div>","null","","","","","",""
"","","","","","image-keyboard-response","524","527688","0.0-0.0-7.0-1.32","null","../data/img/test/triangle/triangle79_2.png","null","","Good","0","Noinclude","",""
"","","","","","html-keyboard-response","525","528914","0.0-0.0-7.0-2.32","1224","<p> </p>","k","","Good","0","无信息","yes",""
"","","","","","html-keyboard-response","526","530652","0.0-0.0-7.0-3.32","1738","<p style =' color : white'>你认为刚才你的判断是?</p>","a","","","","","no","正确"
"","","","","","html-keyboard-response","527","531161","0.0-0.0-7.0-0.33","null","<div style=""font-size:60px; color: white"">+</div>","null","","","","","",""
"","","","","","image-keyboard-response","528","531366","0.0-0.0-7.0-1.33","null","../data/img/test/triangle/triangle1_2.png","null","","Good","0","Noinclude","",""
"","","","","","html-keyboard-response","529","533108","0.0-0.0-7.0-2.33","1741","<p> </p>","j","","Good","1","好人","yes",""
"","","","","","html-keyboard-response","530","534080","0.0-0.0-7.0-3.33","971","<p style =' color : white'>你认为刚才你的判断是?</p>","a","","","","","no","正确"
"","","","","","html-keyboard-response","531","534592","0.0-0.0-7.0-0.34","null","<div style=""font-size:60px; color: white"">+</div>","null","","","","","",""
"","","","","","image-keyboard-response","532","534800","0.0-0.0-7.0-1.34","null","../data/img/test/triangle/triangle52_2.png","null","","Good","0","Noinclude","",""
"","","","","","html-keyboard-response","533","536347","0.0-0.0-7.0-2.34","1546","<p> </p>","j","","Good","1","好人","yes",""
"","","","","","html-keyboard-response","534","537999","0.0-0.0-7.0-3.34","1652","<p style =' color : white'>你认为刚才你的判断是?</p>","d","","","","","no","正确"
"","","","","","html-keyboard-response","535","538513","0.0-0.0-7.0-0.35","null","<div style=""font-size:60px; color: white"">+</div>","null","","","","","",""
"","","","","","image-keyboard-response","536","538718","0.0-0.0-7.0-1.35","null","../data/img/test/square/square18_4.png","null","","Bad","0","Noinclude","",""
"","","","","","html-keyboard-response","537","540728","0.0-0.0-7.0-2.35","null","<p> </p>","null","","Bad","0","","yes",""
"","","","","","html-keyboard-response","538","541892","0.0-0.0-7.0-3.35","1164","<p style =' color : white'>你认为刚才你的判断是?</p>","d","","","","","no","正确"
"","","","","","html-keyboard-response","539","542400","0.0-0.0-7.0-0.36","null","<div style=""font-size:60px; color: white"">+</div>","null","","","","","",""
"","","","","","image-keyboard-response","540","542604","0.0-0.0-7.0-1.36","null","../data/img/test/square/square27_2.png","null","","Bad","0","Noinclude","",""
"","","","","","html-keyboard-response","541","544033","0.0-0.0-7.0-2.36","1428","<p> </p>","k","","Bad","1","坏人","yes",""
"","","","","","html-keyboard-response","542","544981","0.0-0.0-7.0-3.36","948","<p style =' color : white'>你认为刚才你的判断是?</p>","d","","","","","no","正确"
"","","","","","html-keyboard-response","543","545483","0.0-0.0-7.0-0.37","null","<div style=""font-size:60px; color: white"">+</div>","null","","","","","",""
"","","","","","image-keyboard-response","544","545694","0.0-0.0-7.0-1.37","null","../data/img/test/square/square33_3.png","null","","Bad","0","Noinclude","",""
"","","","","","html-keyboard-response","545","547700","0.0-0.0-7.0-2.37","null","<p> </p>","null","","Bad","0","","yes",""
"","","","","","html-keyboard-response","546","549712","0.0-0.0-7.0-3.37","null","<p style =' color : white'>你认为刚才你的判断是?</p>","null","","","","","no",""
"","","","","","html-keyboard-response","547","550225","0.0-0.0-7.0-0.38","null","<div style=""font-size:60px; color: white"">+</div>","null","","","","","",""
"","","","","","image-keyboard-response","548","550432","0.0-0.0-7.0-1.38","null","../data/img/test/triangle/triangle66_4.png","null","","Good","0","Noinclude","",""
"","","","","","html-keyboard-response","549","551706","0.0-0.0-7.0-2.38","1272","<p> </p>","j","","Good","1","好人","yes",""
"","","","","","html-keyboard-response","550","552572","0.0-0.0-7.0-3.38","865","<p style =' color : white'>你认为刚才你的判断是?</p>","a","","","","","no","正确"
"","","","","","html-keyboard-response","551","553075","0.0-0.0-7.0-0.39","null","<div style=""font-size:60px; color: white"">+</div>","null","","","","","",""
"","","","","","image-keyboard-response","552","553289","0.0-0.0-7.0-1.39","null","../data/img/test/square/square13_5.png","null","","Bad","0","Noinclude","",""
"","","","","","html-keyboard-response","553","555293","0.0-0.0-7.0-2.39","null","<p> </p>","null","","Bad","0","","yes",""
"","","","","","html-keyboard-response","554","556305","0.0-0.0-7.0-3.39","1011","<p style =' color : white'>你认为刚才你的判断是?</p>","a","","","","","no","正确"
"","","","","","html-keyboard-response","555","556812","0.0-0.0-7.0-0.40","null","<div style=""font-size:60px; color: white"">+</div>","null","","","","","",""
"","","","","","image-keyboard-response","556","557022","0.0-0.0-7.0-1.40","null","../data/img/test/square/square39_1.png","null","","Bad","0","Noinclude","",""
"","","","","","html-keyboard-response","557","558274","0.0-0.0-7.0-2.40","1252","<p> </p>","k","","Bad","0","无信息","yes",""
"","","","","","html-keyboard-response","558","560149","0.0-0.0-7.0-3.40","1874","<p style =' color : white'>你认为刚才你的判断是?</p>","a","","","","","no","错误"
"","","","","","html-keyboard-response","559","560652","0.0-0.0-7.0-0.41","null","<div style=""font-size:60px; color: white"">+</div>","null","","","","","",""
"","","","","","image-keyboard-response","560","560862","0.0-0.0-7.0-1.41","null","../data/img/test/triangle/triangle56_1.png","null","","Good","0","Noinclude","",""
"","","","","","html-keyboard-response","561","562868","0.0-0.0-7.0-2.41","null","<p> </p>","null","","Good","0","","yes",""
"","","","","","html-keyboard-response","562","564880","0.0-0.0-7.0-3.41","null","<p style =' color : white'>你认为刚才你的判断是?</p>","null","","","","","no",""
"","","","","","html-keyboard-response","563","565390","0.0-0.0-7.0-0.42","null","<div style=""font-size:60px; color: white"">+</div>","null","","","","","",""
"","","","","","image-keyboard-response","564","565599","0.0-0.0-7.0-1.42","null","../data/img/test/triangle/triangle18_2.png","null","","Good","0","Noinclude","",""
"","","","","","html-keyboard-response","565","567606","0.0-0.0-7.0-2.42","null","<p> </p>","null","","Good","0","","yes",""
"","","","","","html-keyboard-response","566","569432","0.0-0.0-7.0-3.42","1826","<p style =' color : white'>你认为刚才你的判断是?</p>","a","","","","","no","错误"
"","","","","","html-keyboard-response","567","569942","0.0-0.0-7.0-0.43","null","<div style=""font-size:60px; color: white"">+</div>","null","","","","","",""
"","","","","","image-keyboard-response","568","570149","0.0-0.0-7.0-1.43","null","../data/img/test/triangle/triangle90_2.png","null","","Good","0","Noinclude","",""
"","","","","","html-keyboard-response","569","571497","0.0-0.0-7.0-2.43","1347","<p> </p>","j","","Good","0","坏人","yes",""
"","","","","","html-keyboard-response","570","572336","0.0-0.0-7.0-3.43","838","<p style =' color : white'>你认为刚才你的判断是?</p>","a","","","","","no","错误"
"","","","","","html-keyboard-response","571","572844","0.0-0.0-7.0-0.44","null","<div style=""font-size:60px; color: white"">+</div>","null","","","","","",""
"","","","","","image-keyboard-response","572","573056","0.0-0.0-7.0-1.44","null","../data/img/test/circle/circle80_1.png","null","","No_info","0","Noinclude","",""
"","","","","","html-keyboard-response","573","574239","0.0-0.0-7.0-2.44","1182","<p> </p>","l","","No_info","1","无信息","yes",""
"","","","","","html-keyboard-response","574","575182","0.0-0.0-7.0-3.44","942","<p style =' color : white'>你认为刚才你的判断是?</p>","d","","","","","no","正确"
"","","","","","html-keyboard-response","575","575683","0.0-0.0-7.0-0.45","null","<div style=""font-size:60px; color: white"">+</div>","null","","","","","",""
"","","","","","image-keyboard-response","576","575892","0.0-0.0-7.0-1.45","null","../data/img/test/square/square12_1.png","null","","Bad","0","Noinclude","",""
"","","","","","html-keyboard-response","577","577565","0.0-0.0-7.0-2.45","1672","<p> </p>","k","","Bad","0","好人","yes",""
"","","","","","html-keyboard-response","578","579032","0.0-0.0-7.0-3.45","1467","<p style =' color : white'>你认为刚才你的判断是?</p>","a","","","","","no","错误"
"","","","","","html-keyboard-response","579","579544","0.0-0.0-7.0-0.46","null","<div style=""font-size:60px; color: white"">+</div>","null","","","","","",""
"","","","","","image-keyboard-response","580","579749","0.0-0.0-7.0-1.46","null","../data/img/test/triangle/triangle62_2.png","null","","Good","0","Noinclude","",""
"","","","","","html-keyboard-response","581","581183","0.0-0.0-7.0-2.46","1432","<p> </p>","l","","Good","1","好人","yes",""
"","","","","","html-keyboard-response","582","582245","0.0-0.0-7.0-3.46","1062","<p style =' color : white'>你认为刚才你的判断是?</p>","d","","","","","no","正确"
"","","","","","html-keyboard-response","583","582752","0.0-0.0-7.0-0.47","null","<div style=""font-size:60px; color: white"">+</div>","null","","","","","",""
"","","","","","image-keyboard-response","584","582956","0.0-0.0-7.0-1.47","null","../data/img/test/circle/circle4_3.png","null","","No_info","0","Noinclude","",""
"","","","","","html-keyboard-response","585","584569","0.0-0.0-7.0-2.47","1613","<p> </p>","k","","No_info","0","坏人","yes",""
"","","","","","html-keyboard-response","586","585266","0.0-0.0-7.0-3.47","696","<p style =' color : white'>你认为刚才你的判断是?</p>","d","","","","","no","错误"
"","","","","","html-keyboard-response","587","585771","0.0-0.0-7.0-0.48","null","<div style=""font-size:60px; color: white"">+</div>","null","","","","","",""
"","","","","","image-keyboard-response","588","585983","0.0-0.0-7.0-1.48","null","../data/img/test/triangle/triangle61_3.png","null","","Good","0","Noinclude","",""
"","","","","","html-keyboard-response","589","587565","0.0-0.0-7.0-2.48","1582","<p> </p>","l","","Good","1","好人","yes",""
"","","","","","html-keyboard-response","590","588677","0.0-0.0-7.0-3.48","1111","<p style =' color : white'>你认为刚才你的判断是?</p>","a","","","","","no","正确"
"","","","","","html-keyboard-response","591","589183","0.0-0.0-7.0-0.49","null","<div style=""font-size:60px; color: white"">+</div>","null","","","","","",""
"","","","","","image-keyboard-response","592","589388","0.0-0.0-7.0-1.49","null","../data/img/test/circle/circle34_1.png","null","","No_info","0","Noinclude","",""
"","","","","","html-keyboard-response","593","591005","0.0-0.0-7.0-2.49","1616","<p> </p>","k","","No_info","0","好人","yes",""
"","","","","","html-keyboard-response","594","592516","0.0-0.0-7.0-3.49","1511","<p style =' color : white'>你认为刚才你的判断是?</p>","d","","","","","no","正确"
"","","","","","html-keyboard-response","595","593024","0.0-0.0-7.0-0.50","null","<div style=""font-size:60px; color: white"">+</div>","null","","","","","",""
"","","","","","image-keyboard-response","596","593230","0.0-0.0-7.0-1.50","null","../data/img/test/square/square44_2.png","null","","Bad","0","Noinclude","",""
"","","","","","html-keyboard-response","597","594934","0.0-0.0-7.0-2.50","1703","<p> </p>","j","","Bad","1","坏人","yes",""
"","","","","","html-keyboard-response","598","596024","0.0-0.0-7.0-3.50","1089","<p style =' color : white'>你认为刚才你的判断是?</p>","d","","","","","no","正确"
"","","","","","html-keyboard-response","599","596532","0.0-0.0-7.0-0.51","null","<div style=""font-size:60px; color: white"">+</div>","null","","","","","",""
"","","","","","image-keyboard-response","600","596740","0.0-0.0-7.0-1.51","null","../data/img/test/square/square33_2.png","null","","Bad","0","Noinclude","",""
"","","","","","html-keyboard-response","601","598577","0.0-0.0-7.0-2.51","1836","<p> </p>","j","","Bad","1","坏人","yes",""
"","","","","","html-keyboard-response","602","599991","0.0-0.0-7.0-3.51","1413","<p style =' color : white'>你认为刚才你的判断是?</p>","d","","","","","no","错误"
"","","","","","html-keyboard-response","603","600504","0.0-0.0-7.0-0.52","null","<div style=""font-size:60px; color: white"">+</div>","null","","","","","",""
"","","","","","image-keyboard-response","604","600707","0.0-0.0-7.0-1.52","null","../data/img/test/triangle/triangle12_2.png","null","","Good","0","Noinclude","",""
"","","","","","html-keyboard-response","605","602716","0.0-0.0-7.0-2.52","null","<p> </p>","null","","Good","0","","yes",""
"","","","","","html-keyboard-response","606","604725","0.0-0.0-7.0-3.52","null","<p style =' color : white'>你认为刚才你的判断是?</p>","null","","","","","no",""
"","","","","","html-keyboard-response","607","605228","0.0-0.0-7.0-0.53","null","<div style=""font-size:60px; color: white"">+</div>","null","","","","","",""
"","","","","","image-keyboard-response","608","605438","0.0-0.0-7.0-1.53","null","../data/img/test/circle/circle17_4.png","null","","No_info","0","Noinclude","",""
"","","","","","html-keyboard-response","609","606526","0.0-0.0-7.0-2.53","1087","<p> </p>","j","","No_info","1","无信息","yes",""
"","","","","","html-keyboard-response","610","607484","0.0-0.0-7.0-3.53","958","<p style =' color : white'>你认为刚才你的判断是?</p>","d","","","","","no","正确"
"","","","","","html-keyboard-response","611","607992","0.0-0.0-7.0-0.54","null","<div style=""font-size:60px; color: white"">+</div>","null","","","","","",""
"","","","","","image-keyboard-response","612","608199","0.0-0.0-7.0-1.54","null","../data/img/test/triangle/triangle90_5.png","null","","Good","0","Noinclude","",""
"","","","","","html-keyboard-response","613","609747","0.0-0.0-7.0-2.54","1547","<p> </p>","k","","Good","0","无信息","yes",""
"","","","","","html-keyboard-response","614","611664","0.0-0.0-7.0-3.54","1916","<p style =' color : white'>你认为刚才你的判断是?</p>","d","","","","","no","正确"
"","","","","","html-keyboard-response","615","612171","0.0-0.0-7.0-0.55","null","<div style=""font-size:60px; color: white"">+</div>","null","","","","","",""
"","","","","","image-keyboard-response","616","612382","0.0-0.0-7.0-1.55","null","../data/img/test/square/square97_2.png","null","","Bad","0","Noinclude","",""
"","","","","","html-keyboard-response","617","613651","0.0-0.0-7.0-2.55","1267","<p> </p>","j","","Bad","1","坏人","yes",""
"","","","","","html-keyboard-response","618","615122","0.0-0.0-7.0-3.55","1471","<p style =' color : white'>你认为刚才你的判断是?</p>","a","","","","","no","正确"
"","","","","","html-keyboard-response","619","615632","0.0-0.0-7.0-0.56","null","<div style=""font-size:60px; color: white"">+</div>","null","","","","","",""
"","","","","","image-keyboard-response","620","615840","0.0-0.0-7.0-1.56","null","../data/img/test/square/square29_3.png","null","","Bad","0","Noinclude","",""
"","","","","","html-keyboard-response","621","617847","0.0-0.0-7.0-2.56","null","<p> </p>","null","","Bad","0","","yes",""
"","","","","","html-keyboard-response","622","619855","0.0-0.0-7.0-3.56","null","<p style =' color : white'>你认为刚才你的判断是?</p>","null","","","","","no",""
"","","","","","html-keyboard-response","623","620365","0.0-0.0-7.0-0.57","null","<div style=""font-size:60px; color: white"">+</div>","null","","","","","",""
"","","","","","image-keyboard-response","624","620570","0.0-0.0-7.0-1.57","null","../data/img/test/circle/circle17_1.png","null","","No_info","0","Noinclude","",""
"","","","","","html-keyboard-response","625","621697","0.0-0.0-7.0-2.57","1126","<p> </p>","j","","No_info","1","无信息","yes",""
"","","","","","html-keyboard-response","626","622723","0.0-0.0-7.0-3.57","1025","<p style =' color : white'>你认为刚才你的判断是?</p>","a","","","","","no","正确"
"","","","","","html-keyboard-response","627","623229","0.0-0.0-7.0-0.58","null","<div style=""font-size:60px; color: white"">+</div>","null","","","","","",""
"","","","","","image-keyboard-response","628","623434","0.0-0.0-7.0-1.58","null","../data/img/test/triangle/triangle32_5.png","null","","Good","0","Noinclude","",""
"","","","","","html-keyboard-response","629","625373","0.0-0.0-7.0-2.58","1938","<p> </p>","j","","Good","1","好人","yes",""
"","","","","","html-keyboard-response","630","626019","0.0-0.0-7.0-3.58","645","<p style =' color : white'>你认为刚才你的判断是?</p>","a","","","","","no","正确"
"","","","","","html-keyboard-response","631","626523","0.0-0.0-7.0-0.59","null","<div style=""font-size:60px; color: white"">+</div>","null","","","","","",""
"","","","","","image-keyboard-response","632","626732","0.0-0.0-7.0-1.59","null","../data/img/test/circle/circle63_4.png","null","","No_info","0","Noinclude","",""
"","","","","","html-keyboard-response","633","627973","0.0-0.0-7.0-2.59","1241","<p> </p>","k","","No_info","1","无信息","yes",""
"","","","","","html-keyboard-response","634","628976","0.0-0.0-7.0-3.59","1002","<p style =' color : white'>你认为刚才你的判断是?</p>","d","","","","","no","正确"
"","","","","","html-keyboard-response","635","987460","0.0-0.0-8.0","358459","<style>.context{color:white; font-size: 35px; line-height:40px}</style>                              <div><p class='context'>您正确回答了57% 的试次。</p>","j","","","","","",""
"","","","","","html-keyboard-response","636","987963","0.0-0.0-9.0-0.0","null","<div style=""font-size:60px; color: white"">+</div>","null","","","","","",""
"","","","","","image-keyboard-response","637","988173","0.0-0.0-9.0-1.0","null","../data/img/test/square/square21_1.png","null","","Bad","0","Noinclude","",""
"","","","","","html-keyboard-response","638","989126","0.0-0.0-9.0-2.0","952","<p> </p>","k","","Bad","0","无信息","yes",""
"","","","","","html-keyboard-response","639","990246","0.0-0.0-9.0-3.0","1119","<p style =' color : white'>你认为刚才你的判断是?</p>","d","","","","","no","错误"
"","","","","","html-keyboard-response","640","990752","0.0-0.0-9.0-0.1","null","<div style=""font-size:60px; color: white"">+</div>","null","","","","","",""
"","","","","","image-keyboard-response","641","990956","0.0-0.0-9.0-1.1","null","../data/img/test/circle/circle43_3.png","null","","No_info","0","Noinclude","",""
"","","","","","html-keyboard-response","642","992968","0.0-0.0-9.0-2.1","null","<p> </p>","null","","No_info","0","","yes",""
"","","","","","html-keyboard-response","643","994973","0.0-0.0-9.0-3.1","null","<p style =' color : white'>你认为刚才你的判断是?</p>","null","","","","","no",""
"","","","","","html-keyboard-response","644","995479","0.0-0.0-9.0-0.2","null","<div style=""font-size:60px; color: white"">+</div>","null","","","","","",""
"","","","","","image-keyboard-response","645","995683","0.0-0.0-9.0-1.2","null","../data/img/test/square/square47_5.png","null","","Bad","0","Noinclude","",""
"","","","","","html-keyboard-response","646","996871","0.0-0.0-9.0-2.2","1186","<p> </p>","k","","Bad","1","坏人","yes",""
"","","","","","html-keyboard-response","647","997654","0.0-0.0-9.0-3.2","783","<p style =' color : white'>你认为刚才你的判断是?</p>","a","","","","","no","错误"
"","","","","","html-keyboard-response","648","998167","0.0-0.0-9.0-0.3","null","<div style=""font-size:60px; color: white"">+</div>","null","","","","","",""
